"value","trial_type","trial_index","time_elapsed","internal_node_id","rt","response","two_step_task_data"
"","call-function","0","218","0.0-0.0","","",""
"","call-function","1","219","0.0-1.0","","",""
"","call-function","2","220","0.0-2.0-0.0-0.0","","",""
"","canvas-keyboard-response","3","222","0.0-2.0-0.0-1.0-0.0-0.0","485","z",""
"","call-function","4","223","0.0-2.0-0.0-1.0-1.0-0.0","","",""
"","canvas-keyboard-response","5","224","0.0-2.0-0.0-1.0-2.0-0.0","null","null",""
"","canvas-keyboard-response","6","224","0.0-2.0-0.0-1.0-3.0-0.0","527","m",""
"","canvas-keyboard-response","7","225","0.0-2.0-0.0-1.0-4.0-0.0","null","null",""
"","canvas-keyboard-response","8","225","0.0-2.0-0.0-1.0-5.0-0.0","null","null",""
"","call-function","9","226","0.0-2.0-0.0-3.0","","",""
"","call-function","10","227","0.0-2.0-0.0-4.0","","","{""trial_n"":1,""reward_probs"":{""2AA"":0.3313618594307993,""2AB"":0.2779367159039269,""2BA"":0.6093495227626154,""2BB"":0.35765824063829543},""step_1_action"":""1B"",""step_2"":""2A"",""transition"":""common"",""step_2_action"":""2AB"",""reward"":false,""timeout"":false}"
"","call-function","11","227","0.0-2.0-0.1-0.1","","",""
"","canvas-keyboard-response","12","228","0.0-2.0-0.1-1.1-0.1-0.1","623","z",""
"","call-function","13","228","0.0-2.0-0.1-1.1-1.1-0.1","","",""
"","canvas-keyboard-response","14","228","0.0-2.0-0.1-1.1-2.1-0.1","null","null",""
"","canvas-keyboard-response","15","228","0.0-2.0-0.1-1.1-3.1-0.1","591","z",""
"","canvas-keyboard-response","16","229","0.0-2.0-0.1-1.1-4.1-0.1","null","null",""
"","canvas-keyboard-response","17","230","0.0-2.0-0.1-1.1-5.1-0.1","null","null",""
"","call-function","18","230","0.0-2.0-0.1-3.1","","",""
"","call-function","19","230","0.0-2.0-0.1-4.1","","","{""trial_n"":2,""reward_probs"":{""2AA"":0.31857515668218783,""2AB"":0.2588405673926659,""2BA"":0.5992145888940481,""2BB"":0.36564072258192964},""step_1_action"":""1B"",""step_2"":""2A"",""transition"":""common"",""step_2_action"":""2AB"",""reward"":false,""timeout"":false}"
"","call-function","20","231","0.0-2.0-0.2-0.2","","",""
"","canvas-keyboard-response","21","231","0.0-2.0-0.2-1.2-0.2-0.2","507","z",""
"","call-function","22","231","0.0-2.0-0.2-1.2-1.2-0.2","","",""
"","canvas-keyboard-response","23","232","0.0-2.0-0.2-1.2-2.2-0.2","null","null",""
"","canvas-keyboard-response","24","232","0.0-2.0-0.2-1.2-3.2-0.2","549","m",""
"","canvas-keyboard-response","25","232","0.0-2.0-0.2-1.2-4.2-0.2","null","null",""
"","canvas-keyboard-response","26","233","0.0-2.0-0.2-1.2-5.2-0.2","null","null",""
"","call-function","27","233","0.0-2.0-0.2-3.2","","",""
"","call-function","28","233","0.0-2.0-0.2-4.2","","","{""trial_n"":3,""reward_probs"":{""2AA"":0.3491083380109928,""2AB"":0.2970569976301118,""2BA"":0.5983321711932874,""2BB"":0.35700308093829536},""step_1_action"":""1A"",""step_2"":""2B"",""transition"":""common"",""step_2_action"":""2BA"",""reward"":false,""timeout"":false}"
"","call-function","29","233","0.0-2.0-0.3-0.3","","",""
"","canvas-keyboard-response","30","233","0.0-2.0-0.3-1.3-0.3-0.3","743","z",""
"","call-function","31","234","0.0-2.0-0.3-1.3-1.3-0.3","","",""
"","canvas-keyboard-response","32","234","0.0-2.0-0.3-1.3-2.3-0.3","null","null",""
"","canvas-keyboard-response","33","234","0.0-2.0-0.3-1.3-3.3-0.3","907","z",""
"","canvas-keyboard-response","34","234","0.0-2.0-0.3-1.3-4.3-0.3","null","null",""
"","canvas-keyboard-response","35","235","0.0-2.0-0.3-1.3-5.3-0.3","null","null",""
"","call-function","36","235","0.0-2.0-0.3-3.3","","",""
"","call-function","37","235","0.0-2.0-0.3-4.3","","","{""trial_n"":4,""reward_probs"":{""2AA"":0.3385173151261162,""2AB"":0.29784865144891953,""2BA"":0.5990002398652875,""2BB"":0.3490763152780711},""step_1_action"":""1A"",""step_2"":""2B"",""transition"":""common"",""step_2_action"":""2BB"",""reward"":false,""timeout"":false}"
"","call-function","38","235","0.0-2.0-0.4-0.4","","",""
"","canvas-keyboard-response","39","236","0.0-2.0-0.4-1.4-0.4-0.4","943","m",""
"","call-function","40","236","0.0-2.0-0.4-1.4-1.4-0.4","","",""
"","canvas-keyboard-response","41","236","0.0-2.0-0.4-1.4-2.4-0.4","null","null",""
"","canvas-keyboard-response","42","236","0.0-2.0-0.4-1.4-3.4-0.4","681","z",""
"","canvas-keyboard-response","43","237","0.0-2.0-0.4-1.4-4.4-0.4","null","null",""
"","canvas-keyboard-response","44","237","0.0-2.0-0.4-1.4-5.4-0.4","null","null",""
"","call-function","45","237","0.0-2.0-0.4-3.4","","",""
"","call-function","46","237","0.0-2.0-0.4-4.4","","","{""trial_n"":5,""reward_probs"":{""2AA"":0.3059514645479724,""2AB"":0.2982666348394519,""2BA"":0.5249960820699517,""2BB"":0.3247247206086106},""step_1_action"":""1B"",""step_2"":""2B"",""transition"":""common"",""step_2_action"":""2BB"",""reward"":true,""timeout"":false}"
"","call-function","47","237","0.0-2.0-0.5-0.5","","",""
"","canvas-keyboard-response","48","238","0.0-2.0-0.5-1.5-0.5-0.5","659","m",""
"","call-function","49","238","0.0-2.0-0.5-1.5-1.5-0.5","","",""
"","canvas-keyboard-response","50","238","0.0-2.0-0.5-1.5-2.5-0.5","null","null",""
"","canvas-keyboard-response","51","238","0.0-2.0-0.5-1.5-3.5-0.5","767","z",""
"","canvas-keyboard-response","52","238","0.0-2.0-0.5-1.5-4.5-0.5","null","null",""
"","canvas-keyboard-response","53","238","0.0-2.0-0.5-1.5-5.5-0.5","null","null",""
"","call-function","54","239","0.0-2.0-0.5-3.5","","",""
"","call-function","55","239","0.0-2.0-0.5-4.5","","","{""trial_n"":6,""reward_probs"":{""2AA"":0.32861292811284565,""2AB"":0.3196266386205267,""2BA"":0.519521273296921,""2BB"":0.34393121079100925},""step_1_action"":""1A"",""step_2"":""2A"",""transition"":""common"",""step_2_action"":""2AB"",""reward"":false,""timeout"":false}"
"","call-function","56","239","0.0-2.0-0.6-0.6","","",""
"","canvas-keyboard-response","57","240","0.0-2.0-0.6-1.6-0.6-0.6","561","m",""
"","call-function","58","242","0.0-2.0-0.6-1.6-1.6-0.6","","",""
"","canvas-keyboard-response","59","243","0.0-2.0-0.6-1.6-2.6-0.6","null","null",""
"","canvas-keyboard-response","60","243","0.0-2.0-0.6-1.6-3.6-0.6","500","z",""
"","canvas-keyboard-response","61","244","0.0-2.0-0.6-1.6-4.6-0.6","null","null",""
"","canvas-keyboard-response","62","245","0.0-2.0-0.6-1.6-5.6-0.6","null","null",""
"","call-function","63","245","0.0-2.0-0.6-3.6","","",""
"","call-function","64","245","0.0-2.0-0.6-4.6","","","{""trial_n"":7,""reward_probs"":{""2AA"":0.3615616211725536,""2AB"":0.3169934402489907,""2BA"":0.49893592718567037,""2BB"":0.3851659947642944},""step_1_action"":""1B"",""step_2"":""2B"",""transition"":""common"",""step_2_action"":""2BA"",""reward"":false,""timeout"":false}"
"","call-function","65","246","0.0-2.0-0.7-0.7","","",""
"","canvas-keyboard-response","66","246","0.0-2.0-0.7-1.7-0.7-0.7","706","z",""
"","call-function","67","246","0.0-2.0-0.7-1.7-1.7-0.7","","",""
"","canvas-keyboard-response","68","247","0.0-2.0-0.7-1.7-2.7-0.7","null","null",""
"","canvas-keyboard-response","69","247","0.0-2.0-0.7-1.7-3.7-0.7","556","m",""
"","canvas-keyboard-response","70","247","0.0-2.0-0.7-1.7-4.7-0.7","null","null",""
"","canvas-keyboard-response","71","247","0.0-2.0-0.7-1.7-5.7-0.7","null","null",""
"","call-function","72","247","0.0-2.0-0.7-3.7","","",""
"","call-function","73","248","0.0-2.0-0.7-4.7","","","{""trial_n"":8,""reward_probs"":{""2AA"":0.37015481662921196,""2AB"":0.3090682167727496,""2BA"":0.510204054331489,""2BB"":0.36092385859066206},""step_1_action"":""1A"",""step_2"":""2B"",""transition"":""common"",""step_2_action"":""2BB"",""reward"":true,""timeout"":false}"
"","call-function","74","248","0.0-2.0-0.8-0.8","","",""
"","canvas-keyboard-response","75","248","0.0-2.0-0.8-1.8-0.8-0.8","523","z",""
"","call-function","76","248","0.0-2.0-0.8-1.8-1.8-0.8","","",""
"","canvas-keyboard-response","77","249","0.0-2.0-0.8-1.8-2.8-0.8","null","null",""
"","canvas-keyboard-response","78","249","0.0-2.0-0.8-1.8-3.8-0.8","608","z",""
"","canvas-keyboard-response","79","249","0.0-2.0-0.8-1.8-4.8-0.8","null","null",""
"","canvas-keyboard-response","80","250","0.0-2.0-0.8-1.8-5.8-0.8","null","null",""
"","call-function","81","250","0.0-2.0-0.8-3.8","","",""
"","call-function","82","250","0.0-2.0-0.8-4.8","","","{""trial_n"":9,""reward_probs"":{""2AA"":0.35252008704577736,""2AB"":0.3112129657848044,""2BA"":0.48797666840316795,""2BB"":0.3606797789252174},""step_1_action"":""1B"",""step_2"":""2A"",""transition"":""common"",""step_2_action"":""2AB"",""reward"":false,""timeout"":false}"
"","call-function","83","250","0.0-2.0-0.9-0.9","","",""
"","canvas-keyboard-response","84","250","0.0-2.0-0.9-1.9-0.9-0.9","545","m",""
"","call-function","85","251","0.0-2.0-0.9-1.9-1.9-0.9","","",""
"","canvas-keyboard-response","86","251","0.0-2.0-0.9-1.9-2.9-0.9","null","null",""
"","canvas-keyboard-response","87","251","0.0-2.0-0.9-1.9-3.9-0.9","454","z",""
"","canvas-keyboard-response","88","251","0.0-2.0-0.9-1.9-4.9-0.9","null","null",""
"","canvas-keyboard-response","89","252","0.0-2.0-0.9-1.9-5.9-0.9","null","null",""
"","call-function","90","252","0.0-2.0-0.9-3.9","","",""
"","call-function","91","252","0.0-2.0-0.9-4.9","","","{""trial_n"":10,""reward_probs"":{""2AA"":0.299746417652185,""2AB"":0.3086124184207074,""2BA"":0.48352903544755926,""2BB"":0.3788987902171576},""step_1_action"":""1B"",""step_2"":""2B"",""transition"":""common"",""step_2_action"":""2BB"",""reward"":true,""timeout"":false}"
"","call-function","92","252","0.0-2.0-0.10-0.10","","",""
"","canvas-keyboard-response","93","253","0.0-2.0-0.10-1.10-0.10-0.10","859","m",""
"","call-function","94","253","0.0-2.0-0.10-1.10-1.10-0.10","","",""
"","canvas-keyboard-response","95","253","0.0-2.0-0.10-1.10-2.10-0.10","null","null",""
"","canvas-keyboard-response","96","253","0.0-2.0-0.10-1.10-3.10-0.10","542","m",""
"","canvas-keyboard-response","97","254","0.0-2.0-0.10-1.10-4.10-0.10","null","null",""
"","canvas-keyboard-response","98","254","0.0-2.0-0.10-1.10-5.10-0.10","null","null",""
"","call-function","99","254","0.0-2.0-0.10-3.10","","",""
"","call-function","100","254","0.0-2.0-0.10-4.10","","","{""trial_n"":11,""reward_probs"":{""2AA"":0.2619990203195171,""2AB"":0.30398226641335324,""2BA"":0.498999661377329,""2BB"":0.39372980628017207},""step_1_action"":""1B"",""step_2"":""2B"",""transition"":""common"",""step_2_action"":""2BA"",""reward"":true,""timeout"":false}"
"","call-function","101","254","0.0-2.0-0.11-0.11","","",""
"","canvas-keyboard-response","102","254","0.0-2.0-0.11-1.11-0.11-0.11","523","z",""
"","call-function","103","254","0.0-2.0-0.11-1.11-1.11-0.11","","",""
"","canvas-keyboard-response","104","255","0.0-2.0-0.11-1.11-2.11-0.11","null","null",""
"","canvas-keyboard-response","105","255","0.0-2.0-0.11-1.11-3.11-0.11","523","z",""
"","canvas-keyboard-response","106","255","0.0-2.0-0.11-1.11-4.11-0.11","null","null",""
"","canvas-keyboard-response","107","256","0.0-2.0-0.11-1.11-5.11-0.11","null","null",""
"","call-function","108","256","0.0-2.0-0.11-3.11","","",""
"","call-function","109","256","0.0-2.0-0.11-4.11","","","{""trial_n"":12,""reward_probs"":{""2AA"":0.3098492695834101,""2AB"":0.3356749234439849,""2BA"":0.4860117112131125,""2BB"":0.4025432770246383},""step_1_action"":""1A"",""step_2"":""2B"",""transition"":""common"",""step_2_action"":""2BA"",""reward"":false,""timeout"":false}"
"","call-function","110","256","0.0-2.0-0.12-0.12","","",""
"","canvas-keyboard-response","111","256","0.0-2.0-0.12-1.12-0.12-0.12","616","z",""
"","call-function","112","257","0.0-2.0-0.12-1.12-1.12-0.12","","",""
"","canvas-keyboard-response","113","257","0.0-2.0-0.12-1.12-2.12-0.12","null","null",""
"","canvas-keyboard-response","114","257","0.0-2.0-0.12-1.12-3.12-0.12","532","z",""
"","canvas-keyboard-response","115","257","0.0-2.0-0.12-1.12-4.12-0.12","null","null",""
"","canvas-keyboard-response","116","257","0.0-2.0-0.12-1.12-5.12-0.12","null","null",""
"","call-function","117","257","0.0-2.0-0.12-3.12","","",""
"","call-function","118","258","0.0-2.0-0.12-4.12","","","{""trial_n"":13,""reward_probs"":{""2AA"":0.3207040288713143,""2AB"":0.3283921490137946,""2BA"":0.49737755161016,""2BB"":0.46319948180741977},""step_1_action"":""1A"",""step_2"":""2B"",""transition"":""common"",""step_2_action"":""2BA"",""reward"":false,""timeout"":false}"
"","call-function","119","258","0.0-2.0-0.13-0.13","","",""
"","canvas-keyboard-response","120","258","0.0-2.0-0.13-1.13-0.13-0.13","783","m",""
"","call-function","121","258","0.0-2.0-0.13-1.13-1.13-0.13","","",""
"","canvas-keyboard-response","122","258","0.0-2.0-0.13-1.13-2.13-0.13","null","null",""
"","canvas-keyboard-response","123","259","0.0-2.0-0.13-1.13-3.13-0.13","590","m",""
"","canvas-keyboard-response","124","259","0.0-2.0-0.13-1.13-4.13-0.13","null","null",""
"","canvas-keyboard-response","125","259","0.0-2.0-0.13-1.13-5.13-0.13","null","null",""
"","call-function","126","259","0.0-2.0-0.13-3.13","","",""
"","call-function","127","259","0.0-2.0-0.13-4.13","","","{""trial_n"":14,""reward_probs"":{""2AA"":0.30762582715097175,""2AB"":0.30304806951372115,""2BA"":0.47697677850854,""2BB"":0.5032029053785282},""step_1_action"":""1A"",""step_2"":""2A"",""transition"":""common"",""step_2_action"":""2AA"",""reward"":false,""timeout"":false}"
"","call-function","128","259","0.0-2.0-0.14-0.14","","",""
"","canvas-keyboard-response","129","260","0.0-2.0-0.14-1.14-0.14-0.14","671","z",""
"","call-function","130","260","0.0-2.0-0.14-1.14-1.14-0.14","","",""
"","canvas-keyboard-response","131","260","0.0-2.0-0.14-1.14-2.14-0.14","null","null",""
"","canvas-keyboard-response","132","260","0.0-2.0-0.14-1.14-3.14-0.14","782","m",""
"","canvas-keyboard-response","133","261","0.0-2.0-0.14-1.14-4.14-0.14","null","null",""
"","canvas-keyboard-response","134","261","0.0-2.0-0.14-1.14-5.14-0.14","null","null",""
"","call-function","135","261","0.0-2.0-0.14-3.14","","",""
"","call-function","136","266","0.0-2.0-0.14-4.14","","","{""trial_n"":15,""reward_probs"":{""2AA"":0.27915971402570244,""2AB"":0.3218958831275032,""2BA"":0.4867703413416359,""2BB"":0.492174396867695},""step_1_action"":""1A"",""step_2"":""2A"",""transition"":""rare"",""step_2_action"":""2AB"",""reward"":true,""timeout"":false}"
"","call-function","137","266","0.0-2.0-0.15-0.15","","",""
"","canvas-keyboard-response","138","267","0.0-2.0-0.15-1.15-0.15-0.15","626","m",""
"","call-function","139","268","0.0-2.0-0.15-1.15-1.15-0.15","","",""
"","canvas-keyboard-response","140","268","0.0-2.0-0.15-1.15-2.15-0.15","null","null",""
"","canvas-keyboard-response","141","268","0.0-2.0-0.15-1.15-3.15-0.15","555","z",""
"","canvas-keyboard-response","142","271","0.0-2.0-0.15-1.15-4.15-0.15","null","null",""
"","canvas-keyboard-response","143","271","0.0-2.0-0.15-1.15-5.15-0.15","null","null",""
"","call-function","144","271","0.0-2.0-0.15-3.15","","",""
"","call-function","145","272","0.0-2.0-0.15-4.15","","","{""trial_n"":16,""reward_probs"":{""2AA"":0.2935167974650257,""2AB"":0.28519728082315504,""2BA"":0.512779196288885,""2BB"":0.4956308458496545},""step_1_action"":""1A"",""step_2"":""2B"",""transition"":""rare"",""step_2_action"":""2BB"",""reward"":true,""timeout"":false}"
"","call-function","146","273","0.0-2.0-0.16-0.16","","",""
"","canvas-keyboard-response","147","274","0.0-2.0-0.16-1.16-0.16-0.16","747","z",""
"","call-function","148","274","0.0-2.0-0.16-1.16-1.16-0.16","","",""
"","canvas-keyboard-response","149","275","0.0-2.0-0.16-1.16-2.16-0.16","null","null",""
"","canvas-keyboard-response","150","275","0.0-2.0-0.16-1.16-3.16-0.16","548","m",""
"","canvas-keyboard-response","151","275","0.0-2.0-0.16-1.16-4.16-0.16","null","null",""
"","canvas-keyboard-response","152","275","0.0-2.0-0.16-1.16-5.16-0.16","null","null",""
"","call-function","153","275","0.0-2.0-0.16-3.16","","",""
"","call-function","154","276","0.0-2.0-0.16-4.16","","","{""trial_n"":17,""reward_probs"":{""2AA"":0.3478513152432823,""2AB"":0.3017344171430933,""2BA"":0.5324195490855879,""2BB"":0.47641457579034935},""step_1_action"":""1B"",""step_2"":""2A"",""transition"":""common"",""step_2_action"":""2AA"",""reward"":false,""timeout"":false}"
"","call-function","155","276","0.0-2.0-0.17-0.17","","",""
"","canvas-keyboard-response","156","276","0.0-2.0-0.17-1.17-0.17-0.17","703","z",""
"","call-function","157","276","0.0-2.0-0.17-1.17-1.17-0.17","","",""
"","canvas-keyboard-response","158","277","0.0-2.0-0.17-1.17-2.17-0.17","null","null",""
"","canvas-keyboard-response","159","277","0.0-2.0-0.17-1.17-3.17-0.17","741","z",""
"","canvas-keyboard-response","160","277","0.0-2.0-0.17-1.17-4.17-0.17","null","null",""
"","canvas-keyboard-response","161","278","0.0-2.0-0.17-1.17-5.17-0.17","null","null",""
"","call-function","162","278","0.0-2.0-0.17-3.17","","",""
"","call-function","163","279","0.0-2.0-0.17-4.17","","","{""trial_n"":18,""reward_probs"":{""2AA"":0.4039128201116802,""2AB"":0.29112442672996214,""2BA"":0.5058561113635621,""2BB"":0.49676993132467917},""step_1_action"":""1A"",""step_2"":""2A"",""transition"":""rare"",""step_2_action"":""2AA"",""reward"":false,""timeout"":false}"
"","call-function","164","279","0.0-2.0-0.18-0.18","","",""
"","canvas-keyboard-response","165","280","0.0-2.0-0.18-1.18-0.18-0.18","651","z",""
"","call-function","166","280","0.0-2.0-0.18-1.18-1.18-0.18","","",""
"","canvas-keyboard-response","167","280","0.0-2.0-0.18-1.18-2.18-0.18","null","null",""
"","canvas-keyboard-response","168","280","0.0-2.0-0.18-1.18-3.18-0.18","923","m",""
"","canvas-keyboard-response","169","280","0.0-2.0-0.18-1.18-4.18-0.18","null","null",""
"","canvas-keyboard-response","170","281","0.0-2.0-0.18-1.18-5.18-0.18","null","null",""
"","call-function","171","281","0.0-2.0-0.18-3.18","","",""
"","call-function","172","281","0.0-2.0-0.18-4.18","","","{""trial_n"":19,""reward_probs"":{""2AA"":0.42715754563070857,""2AB"":0.28359289657183856,""2BA"":0.48561485306843577,""2BB"":0.46114890347575366},""step_1_action"":""1A"",""step_2"":""2B"",""transition"":""common"",""step_2_action"":""2BB"",""reward"":false,""timeout"":false}"
"","call-function","173","281","0.0-2.0-0.19-0.19","","",""
"","canvas-keyboard-response","174","281","0.0-2.0-0.19-1.19-0.19-0.19","554","m",""
"","call-function","175","281","0.0-2.0-0.19-1.19-1.19-0.19","","",""
"","canvas-keyboard-response","176","282","0.0-2.0-0.19-1.19-2.19-0.19","null","null",""
"","canvas-keyboard-response","177","282","0.0-2.0-0.19-1.19-3.19-0.19","783","m",""
"","canvas-keyboard-response","178","282","0.0-2.0-0.19-1.19-4.19-0.19","null","null",""
"","canvas-keyboard-response","179","282","0.0-2.0-0.19-1.19-5.19-0.19","null","null",""
"","call-function","180","282","0.0-2.0-0.19-3.19","","",""
"","call-function","181","282","0.0-2.0-0.19-4.19","","","{""trial_n"":20,""reward_probs"":{""2AA"":0.40287635272923406,""2AB"":0.29834152096020783,""2BA"":0.46891198800762995,""2BB"":0.491219186683024},""step_1_action"":""1B"",""step_2"":""2B"",""transition"":""common"",""step_2_action"":""2BA"",""reward"":false,""timeout"":false}"
"","call-function","182","283","0.0-2.0-0.20-0.20","","",""
"","canvas-keyboard-response","183","283","0.0-2.0-0.20-1.20-0.20-0.20","523","z",""
"","call-function","184","287","0.0-2.0-0.20-1.20-1.20-0.20","","",""
"","canvas-keyboard-response","185","287","0.0-2.0-0.20-1.20-2.20-0.20","null","null",""
"","canvas-keyboard-response","186","287","0.0-2.0-0.20-1.20-3.20-0.20","740","z",""
"","canvas-keyboard-response","187","288","0.0-2.0-0.20-1.20-4.20-0.20","null","null",""
"","canvas-keyboard-response","188","288","0.0-2.0-0.20-1.20-5.20-0.20","null","null",""
"","call-function","189","288","0.0-2.0-0.20-3.20","","",""
"","call-function","190","288","0.0-2.0-0.20-4.20","","","{""trial_n"":21,""reward_probs"":{""2AA"":0.3916121263561593,""2AB"":0.26381234324593966,""2BA"":0.47110909983927024,""2BB"":0.4811316947717614},""step_1_action"":""1B"",""step_2"":""2B"",""transition"":""rare"",""step_2_action"":""2BA"",""reward"":false,""timeout"":false}"
"","call-function","191","288","0.0-2.0-0.21-0.21","","",""
"","canvas-keyboard-response","192","288","0.0-2.0-0.21-1.21-0.21-0.21","514","m",""
"","call-function","193","289","0.0-2.0-0.21-1.21-1.21-0.21","","",""
"","canvas-keyboard-response","194","289","0.0-2.0-0.21-1.21-2.21-0.21","null","null",""
"","canvas-keyboard-response","195","289","0.0-2.0-0.21-1.21-3.21-0.21","1226","z",""
"","canvas-keyboard-response","196","289","0.0-2.0-0.21-1.21-4.21-0.21","null","null",""
"","canvas-keyboard-response","197","289","0.0-2.0-0.21-1.21-5.21-0.21","null","null",""
"","call-function","198","289","0.0-2.0-0.21-3.21","","",""
"","call-function","199","290","0.0-2.0-0.21-4.21","","","{""trial_n"":22,""reward_probs"":{""2AA"":0.3837143753587966,""2AB"":0.278860731051003,""2BA"":0.461798898292364,""2BB"":0.46227655156132197},""step_1_action"":""1B"",""step_2"":""2B"",""transition"":""common"",""step_2_action"":""2BA"",""reward"":false,""timeout"":false}"
"","call-function","200","290","0.0-2.0-0.22-0.22","","",""
"","canvas-keyboard-response","201","290","0.0-2.0-0.22-1.22-0.22-0.22","453","m",""
"","call-function","202","290","0.0-2.0-0.22-1.22-1.22-0.22","","",""
"","canvas-keyboard-response","203","291","0.0-2.0-0.22-1.22-2.22-0.22","null","null",""
"","canvas-keyboard-response","204","293","0.0-2.0-0.22-1.22-3.22-0.22","697","m",""
"","canvas-keyboard-response","205","293","0.0-2.0-0.22-1.22-4.22-0.22","null","null",""
"","canvas-keyboard-response","206","294","0.0-2.0-0.22-1.22-5.22-0.22","null","null",""
"","call-function","207","294","0.0-2.0-0.22-3.22","","",""
"","call-function","208","294","0.0-2.0-0.22-4.22","","","{""trial_n"":23,""reward_probs"":{""2AA"":0.38941379565047957,""2AB"":0.29853942445879544,""2BA"":0.4760632832615287,""2BB"":0.4484957204359817},""step_1_action"":""1A"",""step_2"":""2A"",""transition"":""common"",""step_2_action"":""2AB"",""reward"":true,""timeout"":false}"
"","call-function","209","294","0.0-2.0-0.23-0.23","","",""
"","canvas-keyboard-response","210","294","0.0-2.0-0.23-1.23-0.23-0.23","545","z",""
"","call-function","211","295","0.0-2.0-0.23-1.23-1.23-0.23","","",""
"","canvas-keyboard-response","212","295","0.0-2.0-0.23-1.23-2.23-0.23","null","null",""
"","canvas-keyboard-response","213","295","0.0-2.0-0.23-1.23-3.23-0.23","561","m",""
"","canvas-keyboard-response","214","295","0.0-2.0-0.23-1.23-4.23-0.23","null","null",""
"","canvas-keyboard-response","215","295","0.0-2.0-0.23-1.23-5.23-0.23","null","null",""
"","call-function","216","296","0.0-2.0-0.23-3.23","","",""
"","call-function","217","296","0.0-2.0-0.23-4.23","","","{""trial_n"":24,""reward_probs"":{""2AA"":0.39077492982803985,""2AB"":0.3363248239458915,""2BA"":0.46017841821717975,""2BB"":0.44762247123093374},""step_1_action"":""1A"",""step_2"":""2B"",""transition"":""common"",""step_2_action"":""2BA"",""reward"":true,""timeout"":false}"
"","call-function","218","296","0.0-2.0-0.24-0.24","","",""
"","canvas-keyboard-response","219","296","0.0-2.0-0.24-1.24-0.24-0.24","740","m",""
"","call-function","220","297","0.0-2.0-0.24-1.24-1.24-0.24","","",""
"","canvas-keyboard-response","221","297","0.0-2.0-0.24-1.24-2.24-0.24","null","null",""
"","canvas-keyboard-response","222","297","0.0-2.0-0.24-1.24-3.24-0.24","790","z",""
"","canvas-keyboard-response","223","297","0.0-2.0-0.24-1.24-4.24-0.24","null","null",""
"","canvas-keyboard-response","224","298","0.0-2.0-0.24-1.24-5.24-0.24","null","null",""
"","call-function","225","298","0.0-2.0-0.24-3.24","","",""
"","call-function","226","299","0.0-2.0-0.24-4.24","","","{""trial_n"":25,""reward_probs"":{""2AA"":0.4277458939123984,""2AB"":0.3089966756004487,""2BA"":0.4891634946329169,""2BB"":0.47169905959292213},""step_1_action"":""1A"",""step_2"":""2B"",""transition"":""rare"",""step_2_action"":""2BB"",""reward"":true,""timeout"":false}"
"","call-function","227","299","0.0-2.0-0.25-0.25","","",""
"","canvas-keyboard-response","228","299","0.0-2.0-0.25-1.25-0.25-0.25","585","z",""
"","call-function","229","299","0.0-2.0-0.25-1.25-1.25-0.25","","",""
"","canvas-keyboard-response","230","299","0.0-2.0-0.25-1.25-2.25-0.25","null","null",""
"","canvas-keyboard-response","231","300","0.0-2.0-0.25-1.25-3.25-0.25","950","m",""
"","canvas-keyboard-response","232","300","0.0-2.0-0.25-1.25-4.25-0.25","null","null",""
"","canvas-keyboard-response","233","300","0.0-2.0-0.25-1.25-5.25-0.25","null","null",""
"","call-function","234","300","0.0-2.0-0.25-3.25","","",""
"","call-function","235","300","0.0-2.0-0.25-4.25","","","{""trial_n"":26,""reward_probs"":{""2AA"":0.3992231211975169,""2AB"":0.3267404246387276,""2BA"":0.5127731721884767,""2BB"":0.49166337469988763},""step_1_action"":""1B"",""step_2"":""2A"",""transition"":""common"",""step_2_action"":""2AB"",""reward"":false,""timeout"":false}"
"","call-function","236","300","0.0-2.0-0.26-0.26","","",""
"","canvas-keyboard-response","237","302","0.0-2.0-0.26-1.26-0.26-0.26","713","m",""
"","call-function","238","302","0.0-2.0-0.26-1.26-1.26-0.26","","",""
"","canvas-keyboard-response","239","305","0.0-2.0-0.26-1.26-2.26-0.26","null","null",""
"","canvas-keyboard-response","240","305","0.0-2.0-0.26-1.26-3.26-0.26","927","z",""
"","canvas-keyboard-response","241","305","0.0-2.0-0.26-1.26-4.26-0.26","null","null",""
"","canvas-keyboard-response","242","306","0.0-2.0-0.26-1.26-5.26-0.26","null","null",""
"","call-function","243","306","0.0-2.0-0.26-3.26","","",""
"","call-function","244","306","0.0-2.0-0.26-4.26","","","{""trial_n"":27,""reward_probs"":{""2AA"":0.40822527032957207,""2AB"":0.37132121242040755,""2BA"":0.5323690882898628,""2BB"":0.5199789866044296},""step_1_action"":""1A"",""step_2"":""2B"",""transition"":""rare"",""step_2_action"":""2BA"",""reward"":true,""timeout"":false}"
"","call-function","245","306","0.0-2.0-0.27-0.27","","",""
"","canvas-keyboard-response","246","306","0.0-2.0-0.27-1.27-0.27-0.27","855","m",""
"","call-function","247","307","0.0-2.0-0.27-1.27-1.27-0.27","","",""
"","canvas-keyboard-response","248","307","0.0-2.0-0.27-1.27-2.27-0.27","null","null",""
"","canvas-keyboard-response","249","307","0.0-2.0-0.27-1.27-3.27-0.27","728","m",""
"","canvas-keyboard-response","250","307","0.0-2.0-0.27-1.27-4.27-0.27","null","null",""
"","canvas-keyboard-response","251","307","0.0-2.0-0.27-1.27-5.27-0.27","null","null",""
"","call-function","252","308","0.0-2.0-0.27-3.27","","",""
"","call-function","253","309","0.0-2.0-0.27-4.27","","","{""trial_n"":28,""reward_probs"":{""2AA"":0.4373533010691968,""2AB"":0.3218473925147552,""2BA"":0.5201146026807782,""2BB"":0.4832745291510621},""step_1_action"":""1B"",""step_2"":""2B"",""transition"":""common"",""step_2_action"":""2BB"",""reward"":true,""timeout"":false}"
"","call-function","254","310","0.0-2.0-0.28-0.28","","",""
"","canvas-keyboard-response","255","310","0.0-2.0-0.28-1.28-0.28-0.28","781","m",""
"","call-function","256","310","0.0-2.0-0.28-1.28-1.28-0.28","","",""
"","canvas-keyboard-response","257","310","0.0-2.0-0.28-1.28-2.28-0.28","null","null",""
"","canvas-keyboard-response","258","311","0.0-2.0-0.28-1.28-3.28-0.28","884","z",""
"","canvas-keyboard-response","259","311","0.0-2.0-0.28-1.28-4.28-0.28","null","null",""
"","canvas-keyboard-response","260","311","0.0-2.0-0.28-1.28-5.28-0.28","null","null",""
"","call-function","261","311","0.0-2.0-0.28-3.28","","",""
"","call-function","262","311","0.0-2.0-0.28-4.28","","","{""trial_n"":29,""reward_probs"":{""2AA"":0.4478064027843959,""2AB"":0.36656564711081385,""2BA"":0.5082047707883678,""2BB"":0.49530959231725613},""step_1_action"":""1B"",""step_2"":""2B"",""transition"":""common"",""step_2_action"":""2BB"",""reward"":true,""timeout"":false}"
"","call-function","263","312","0.0-2.0-0.29-0.29","","",""
"","canvas-keyboard-response","264","312","0.0-2.0-0.29-1.29-0.29-0.29","991","z",""
"","call-function","265","312","0.0-2.0-0.29-1.29-1.29-0.29","","",""
"","canvas-keyboard-response","266","312","0.0-2.0-0.29-1.29-2.29-0.29","null","null",""
"","canvas-keyboard-response","267","313","0.0-2.0-0.29-1.29-3.29-0.29","687","m",""
"","canvas-keyboard-response","268","314","0.0-2.0-0.29-1.29-4.29-0.29","null","null",""
"","canvas-keyboard-response","269","314","0.0-2.0-0.29-1.29-5.29-0.29","null","null",""
"","call-function","270","314","0.0-2.0-0.29-3.29","","",""
"","call-function","271","314","0.0-2.0-0.29-4.29","","","{""trial_n"":30,""reward_probs"":{""2AA"":0.4508646968961081,""2AB"":0.3872562941308454,""2BA"":0.5013278068772147,""2BB"":0.5151768525217751},""step_1_action"":""1A"",""step_2"":""2A"",""transition"":""rare"",""step_2_action"":""2AB"",""reward"":false,""timeout"":false}"
"","call-function","272","315","0.0-2.0-0.30-0.30","","",""
"","canvas-keyboard-response","273","315","0.0-2.0-0.30-1.30-0.30-0.30","673","z",""
"","call-function","274","315","0.0-2.0-0.30-1.30-1.30-0.30","","",""
"","canvas-keyboard-response","275","315","0.0-2.0-0.30-1.30-2.30-0.30","null","null",""
"","canvas-keyboard-response","276","315","0.0-2.0-0.30-1.30-3.30-0.30","553","m",""
"","canvas-keyboard-response","277","316","0.0-2.0-0.30-1.30-4.30-0.30","null","null",""
"","canvas-keyboard-response","278","316","0.0-2.0-0.30-1.30-5.30-0.30","null","null",""
"","call-function","279","316","0.0-2.0-0.30-3.30","","",""
"","call-function","280","316","0.0-2.0-0.30-4.30","","","{""trial_n"":31,""reward_probs"":{""2AA"":0.42869306433570925,""2AB"":0.3737672303798243,""2BA"":0.4848791093483438,""2BB"":0.5160483380337384},""step_1_action"":""1B"",""step_2"":""2A"",""transition"":""common"",""step_2_action"":""2AA"",""reward"":true,""timeout"":false}"
"","call-function","281","316","0.0-2.0-0.31-0.31","","",""
"","canvas-keyboard-response","282","317","0.0-2.0-0.31-1.31-0.31-0.31","684","z",""
"","call-function","283","317","0.0-2.0-0.31-1.31-1.31-0.31","","",""
"","canvas-keyboard-response","284","317","0.0-2.0-0.31-1.31-2.31-0.31","null","null",""
"","canvas-keyboard-response","285","317","0.0-2.0-0.31-1.31-3.31-0.31","521","m",""
"","canvas-keyboard-response","286","317","0.0-2.0-0.31-1.31-4.31-0.31","null","null",""
"","canvas-keyboard-response","287","318","0.0-2.0-0.31-1.31-5.31-0.31","null","null",""
"","call-function","288","318","0.0-2.0-0.31-3.31","","",""
"","call-function","289","318","0.0-2.0-0.31-4.31","","","{""trial_n"":32,""reward_probs"":{""2AA"":0.4314028905047811,""2AB"":0.40939198575948343,""2BA"":0.4697228298391681,""2BB"":0.48513231263084977},""step_1_action"":""1B"",""step_2"":""2A"",""transition"":""common"",""step_2_action"":""2AA"",""reward"":true,""timeout"":false}"
"","call-function","290","318","0.0-2.0-0.32-0.32","","",""
"","canvas-keyboard-response","291","318","0.0-2.0-0.32-1.32-0.32-0.32","474","m",""
"","call-function","292","318","0.0-2.0-0.32-1.32-1.32-0.32","","",""
"","canvas-keyboard-response","293","318","0.0-2.0-0.32-1.32-2.32-0.32","null","null",""
"","canvas-keyboard-response","294","319","0.0-2.0-0.32-1.32-3.32-0.32","493","m",""
"","canvas-keyboard-response","295","319","0.0-2.0-0.32-1.32-4.32-0.32","null","null",""
"","canvas-keyboard-response","296","319","0.0-2.0-0.32-1.32-5.32-0.32","null","null",""
"","call-function","297","319","0.0-2.0-0.32-3.32","","",""
"","call-function","298","319","0.0-2.0-0.32-4.32","","","{""trial_n"":33,""reward_probs"":{""2AA"":0.45857470208168255,""2AB"":0.4404900581845629,""2BA"":0.5052255476296961,""2BB"":0.5021335913984377},""step_1_action"":""1B"",""step_2"":""2B"",""transition"":""common"",""step_2_action"":""2BA"",""reward"":true,""timeout"":false}"
"","call-function","299","319","0.0-2.0-0.33-0.33","","",""
"","canvas-keyboard-response","300","320","0.0-2.0-0.33-1.33-0.33-0.33","767","z",""
"","call-function","301","320","0.0-2.0-0.33-1.33-1.33-0.33","","",""
"","canvas-keyboard-response","302","320","0.0-2.0-0.33-1.33-2.33-0.33","null","null",""
"","canvas-keyboard-response","303","320","0.0-2.0-0.33-1.33-3.33-0.33","717","z",""
"","canvas-keyboard-response","304","320","0.0-2.0-0.33-1.33-4.33-0.33","null","null",""
"","canvas-keyboard-response","305","320","0.0-2.0-0.33-1.33-5.33-0.33","null","null",""
"","call-function","306","321","0.0-2.0-0.33-3.33","","",""
"","call-function","307","321","0.0-2.0-0.33-4.33","","","{""trial_n"":34,""reward_probs"":{""2AA"":0.4221680540248804,""2AB"":0.4698246011668343,""2BA"":0.49944147676602235,""2BB"":0.5229167987338643},""step_1_action"":""1A"",""step_2"":""2A"",""transition"":""rare"",""step_2_action"":""2AA"",""reward"":true,""timeout"":false}"
"","call-function","308","321","0.0-2.0-0.34-0.34","","",""
"","canvas-keyboard-response","309","321","0.0-2.0-0.34-1.34-0.34-0.34","751","m",""
"","call-function","310","321","0.0-2.0-0.34-1.34-1.34-0.34","","",""
"","canvas-keyboard-response","311","321","0.0-2.0-0.34-1.34-2.34-0.34","null","null",""
"","canvas-keyboard-response","312","322","0.0-2.0-0.34-1.34-3.34-0.34","493","z",""
"","canvas-keyboard-response","313","322","0.0-2.0-0.34-1.34-4.34-0.34","null","null",""
"","canvas-keyboard-response","314","322","0.0-2.0-0.34-1.34-5.34-0.34","null","null",""
"","call-function","315","322","0.0-2.0-0.34-3.34","","",""
"","call-function","316","322","0.0-2.0-0.34-4.34","","","{""trial_n"":35,""reward_probs"":{""2AA"":0.4056844403805157,""2AB"":0.4639514387745361,""2BA"":0.4662466503850824,""2BB"":0.5226558642309561},""step_1_action"":""1B"",""step_2"":""2A"",""transition"":""rare"",""step_2_action"":""2AB"",""reward"":false,""timeout"":false}"
"","call-function","317","322","0.0-2.0-0.35-0.35","","",""
"","canvas-keyboard-response","318","323","0.0-2.0-0.35-1.35-0.35-0.35","581","z",""
"","call-function","319","323","0.0-2.0-0.35-1.35-1.35-0.35","","",""
"","canvas-keyboard-response","320","323","0.0-2.0-0.35-1.35-2.35-0.35","null","null",""
"","canvas-keyboard-response","321","323","0.0-2.0-0.35-1.35-3.35-0.35","499","m",""
"","canvas-keyboard-response","322","323","0.0-2.0-0.35-1.35-4.35-0.35","null","null",""
"","canvas-keyboard-response","323","323","0.0-2.0-0.35-1.35-5.35-0.35","null","null",""
"","call-function","324","324","0.0-2.0-0.35-3.35","","",""
"","call-function","325","324","0.0-2.0-0.35-4.35","","","{""trial_n"":36,""reward_probs"":{""2AA"":0.4250959828627156,""2AB"":0.4706973296903451,""2BA"":0.40459346717046274,""2BB"":0.549515952811887},""step_1_action"":""1B"",""step_2"":""2A"",""transition"":""common"",""step_2_action"":""2AA"",""reward"":true,""timeout"":false}"
"","call-function","326","324","0.0-2.0-0.36-0.36","","",""
"","canvas-keyboard-response","327","324","0.0-2.0-0.36-1.36-0.36-0.36","585","m",""
"","call-function","328","324","0.0-2.0-0.36-1.36-1.36-0.36","","",""
"","canvas-keyboard-response","329","324","0.0-2.0-0.36-1.36-2.36-0.36","null","null",""
"","canvas-keyboard-response","330","324","0.0-2.0-0.36-1.36-3.36-0.36","551","z",""
"","canvas-keyboard-response","331","325","0.0-2.0-0.36-1.36-4.36-0.36","null","null",""
"","canvas-keyboard-response","332","325","0.0-2.0-0.36-1.36-5.36-0.36","null","null",""
"","call-function","333","325","0.0-2.0-0.36-3.36","","",""
"","call-function","334","325","0.0-2.0-0.36-4.36","","","{""trial_n"":37,""reward_probs"":{""2AA"":0.43562885515979455,""2AB"":0.5064072680707875,""2BA"":0.4199438505722384,""2BB"":0.4979385339925509},""step_1_action"":""1B"",""step_2"":""2A"",""transition"":""rare"",""step_2_action"":""2AB"",""reward"":true,""timeout"":false}"
"","call-function","335","326","0.0-2.0-0.37-0.37","","",""
"","canvas-keyboard-response","336","326","0.0-2.0-0.37-1.37-0.37-0.37","668","m",""
"","call-function","337","326","0.0-2.0-0.37-1.37-1.37-0.37","","",""
"","canvas-keyboard-response","338","326","0.0-2.0-0.37-1.37-2.37-0.37","null","null",""
"","canvas-keyboard-response","339","326","0.0-2.0-0.37-1.37-3.37-0.37","469","z",""
"","canvas-keyboard-response","340","327","0.0-2.0-0.37-1.37-4.37-0.37","null","null",""
"","canvas-keyboard-response","341","327","0.0-2.0-0.37-1.37-5.37-0.37","null","null",""
"","call-function","342","327","0.0-2.0-0.37-3.37","","",""
"","call-function","343","327","0.0-2.0-0.37-4.37","","","{""trial_n"":38,""reward_probs"":{""2AA"":0.4659682046694968,""2AB"":0.4544684472092996,""2BA"":0.4108475454112806,""2BB"":0.4694797918093893},""step_1_action"":""1B"",""step_2"":""2A"",""transition"":""rare"",""step_2_action"":""2AB"",""reward"":true,""timeout"":false}"
"","call-function","344","327","0.0-2.0-0.38-0.38","","",""
"","canvas-keyboard-response","345","327","0.0-2.0-0.38-1.38-0.38-0.38","606","z",""
"","call-function","346","327","0.0-2.0-0.38-1.38-1.38-0.38","","",""
"","canvas-keyboard-response","347","328","0.0-2.0-0.38-1.38-2.38-0.38","null","null",""
"","canvas-keyboard-response","348","328","0.0-2.0-0.38-1.38-3.38-0.38","677","z",""
"","canvas-keyboard-response","349","328","0.0-2.0-0.38-1.38-4.38-0.38","null","null",""
"","canvas-keyboard-response","350","328","0.0-2.0-0.38-1.38-5.38-0.38","null","null",""
"","call-function","351","328","0.0-2.0-0.38-3.38","","",""
"","call-function","352","329","0.0-2.0-0.38-4.38","","","{""trial_n"":39,""reward_probs"":{""2AA"":0.42773615242463786,""2AB"":0.4881673044529362,""2BA"":0.3908692663433859,""2BB"":0.4555000482122453},""step_1_action"":""1A"",""step_2"":""2B"",""transition"":""common"",""step_2_action"":""2BB"",""reward"":false,""timeout"":false}"
"","call-function","353","329","0.0-2.0-0.39-0.39","","",""
"","canvas-keyboard-response","354","335","0.0-2.0-0.39-1.39-0.39-0.39","569","z",""
"","call-function","355","336","0.0-2.0-0.39-1.39-1.39-0.39","","",""
"","canvas-keyboard-response","356","336","0.0-2.0-0.39-1.39-2.39-0.39","null","null",""
"","canvas-keyboard-response","357","336","0.0-2.0-0.39-1.39-3.39-0.39","643","z",""
"","canvas-keyboard-response","358","336","0.0-2.0-0.39-1.39-4.39-0.39","null","null",""
"","canvas-keyboard-response","359","336","0.0-2.0-0.39-1.39-5.39-0.39","null","null",""
"","call-function","360","336","0.0-2.0-0.39-3.39","","",""
"","call-function","361","336","0.0-2.0-0.39-4.39","","","{""trial_n"":40,""reward_probs"":{""2AA"":0.4604049163802029,""2AB"":0.4962943044035679,""2BA"":0.3853756491352248,""2BB"":0.43629068162407253},""step_1_action"":""1B"",""step_2"":""2B"",""transition"":""rare"",""step_2_action"":""2BA"",""reward"":false,""timeout"":false}"
"","call-function","362","336","0.0-2.0-0.40-0.40","","",""
"","canvas-keyboard-response","363","337","0.0-2.0-0.40-1.40-0.40-0.40","520","m",""
"","call-function","364","337","0.0-2.0-0.40-1.40-1.40-0.40","","",""
"","canvas-keyboard-response","365","337","0.0-2.0-0.40-1.40-2.40-0.40","null","null",""
"","canvas-keyboard-response","366","337","0.0-2.0-0.40-1.40-3.40-0.40","557","z",""
"","canvas-keyboard-response","367","337","0.0-2.0-0.40-1.40-4.40-0.40","null","null",""
"","canvas-keyboard-response","368","337","0.0-2.0-0.40-1.40-5.40-0.40","null","null",""
"","call-function","369","338","0.0-2.0-0.40-3.40","","",""
"","call-function","370","338","0.0-2.0-0.40-4.40","","","{""trial_n"":41,""reward_probs"":{""2AA"":0.43733839778718414,""2AB"":0.4755150267839313,""2BA"":0.36568993290900326,""2BB"":0.429626342260221},""step_1_action"":""1A"",""step_2"":""2A"",""transition"":""common"",""step_2_action"":""2AA"",""reward"":true,""timeout"":false}"
"","call-function","371","338","0.0-2.0-0.41-0.41","","",""
"","canvas-keyboard-response","372","338","0.0-2.0-0.41-1.41-0.41-0.41","609","z",""
"","call-function","373","338","0.0-2.0-0.41-1.41-1.41-0.41","","",""
"","canvas-keyboard-response","374","338","0.0-2.0-0.41-1.41-2.41-0.41","null","null",""
"","canvas-keyboard-response","375","338","0.0-2.0-0.41-1.41-3.41-0.41","435","m",""
"","canvas-keyboard-response","376","338","0.0-2.0-0.41-1.41-4.41-0.41","null","null",""
"","canvas-keyboard-response","377","339","0.0-2.0-0.41-1.41-5.41-0.41","null","null",""
"","call-function","378","339","0.0-2.0-0.41-3.41","","",""
"","call-function","379","339","0.0-2.0-0.41-4.41","","","{""trial_n"":42,""reward_probs"":{""2AA"":0.441108487407678,""2AB"":0.4439217990117103,""2BA"":0.34439896357847544,""2BB"":0.43070524410711547},""step_1_action"":""1B"",""step_2"":""2B"",""transition"":""rare"",""step_2_action"":""2BB"",""reward"":false,""timeout"":false}"
"","call-function","380","339","0.0-2.0-0.42-0.42","","",""
"","canvas-keyboard-response","381","339","0.0-2.0-0.42-1.42-0.42-0.42","1069","z",""
"","call-function","382","339","0.0-2.0-0.42-1.42-1.42-0.42","","",""
"","canvas-keyboard-response","383","339","0.0-2.0-0.42-1.42-2.42-0.42","null","null",""
"","canvas-keyboard-response","384","340","0.0-2.0-0.42-1.42-3.42-0.42","579","m",""
"","canvas-keyboard-response","385","340","0.0-2.0-0.42-1.42-4.42-0.42","null","null",""
"","canvas-keyboard-response","386","340","0.0-2.0-0.42-1.42-5.42-0.42","null","null",""
"","call-function","387","340","0.0-2.0-0.42-3.42","","",""
"","call-function","388","340","0.0-2.0-0.42-4.42","","","{""trial_n"":43,""reward_probs"":{""2AA"":0.42778079174298833,""2AB"":0.42355240965917224,""2BA"":0.3727848335329172,""2BB"":0.42097979031869365},""step_1_action"":""1A"",""step_2"":""2B"",""transition"":""common"",""step_2_action"":""2BA"",""reward"":false,""timeout"":false}"
"","call-function","389","340","0.0-2.0-0.43-0.43","","",""
"","canvas-keyboard-response","390","341","0.0-2.0-0.43-1.43-0.43-0.43","979","z",""
"","call-function","391","341","0.0-2.0-0.43-1.43-1.43-0.43","","",""
"","canvas-keyboard-response","392","341","0.0-2.0-0.43-1.43-2.43-0.43","null","null",""
"","canvas-keyboard-response","393","341","0.0-2.0-0.43-1.43-3.43-0.43","777","z",""
"","canvas-keyboard-response","394","341","0.0-2.0-0.43-1.43-4.43-0.43","null","null",""
"","canvas-keyboard-response","395","342","0.0-2.0-0.43-1.43-5.43-0.43","null","null",""
"","call-function","396","342","0.0-2.0-0.43-3.43","","",""
"","call-function","397","342","0.0-2.0-0.43-4.43","","","{""trial_n"":44,""reward_probs"":{""2AA"":0.4659327336177288,""2AB"":0.43995487879542766,""2BA"":0.28660609639760476,""2BB"":0.3716952855318829},""step_1_action"":""1B"",""step_2"":""2A"",""transition"":""common"",""step_2_action"":""2AA"",""reward"":false,""timeout"":false}"
"","call-function","398","342","0.0-2.0-0.44-0.44","","",""
"","canvas-keyboard-response","399","342","0.0-2.0-0.44-1.44-0.44-0.44","517","m",""
"","call-function","400","342","0.0-2.0-0.44-1.44-1.44-0.44","","",""
"","canvas-keyboard-response","401","343","0.0-2.0-0.44-1.44-2.44-0.44","null","null",""
"","canvas-keyboard-response","402","343","0.0-2.0-0.44-1.44-3.44-0.44","882","m",""
"","canvas-keyboard-response","403","343","0.0-2.0-0.44-1.44-4.44-0.44","null","null",""
"","canvas-keyboard-response","404","343","0.0-2.0-0.44-1.44-5.44-0.44","null","null",""
"","call-function","405","343","0.0-2.0-0.44-3.44","","",""
"","call-function","406","344","0.0-2.0-0.44-4.44","","","{""trial_n"":45,""reward_probs"":{""2AA"":0.4290809384893412,""2AB"":0.4325422734152093,""2BA"":0.2834549054485191,""2BB"":0.3511725469337629},""step_1_action"":""1B"",""step_2"":""2A"",""transition"":""rare"",""step_2_action"":""2AB"",""reward"":true,""timeout"":false}"
"","call-function","407","344","0.0-2.0-0.45-0.45","","",""
"","canvas-keyboard-response","408","344","0.0-2.0-0.45-1.45-0.45-0.45","640","m",""
"","call-function","409","344","0.0-2.0-0.45-1.45-1.45-0.45","","",""
"","canvas-keyboard-response","410","344","0.0-2.0-0.45-1.45-2.45-0.45","null","null",""
"","canvas-keyboard-response","411","344","0.0-2.0-0.45-1.45-3.45-0.45","717","z",""
"","canvas-keyboard-response","412","344","0.0-2.0-0.45-1.45-4.45-0.45","null","null",""
"","canvas-keyboard-response","413","345","0.0-2.0-0.45-1.45-5.45-0.45","null","null",""
"","call-function","414","345","0.0-2.0-0.45-3.45","","",""
"","call-function","415","345","0.0-2.0-0.45-4.45","","","{""trial_n"":46,""reward_probs"":{""2AA"":0.4625988308294684,""2AB"":0.4536563240768656,""2BA"":0.2929443787911594,""2BB"":0.31860225588540125},""step_1_action"":""1A"",""step_2"":""2A"",""transition"":""common"",""step_2_action"":""2AA"",""reward"":false,""timeout"":false}"
"","call-function","416","345","0.0-2.0-0.46-0.46","","",""
"","canvas-keyboard-response","417","345","0.0-2.0-0.46-1.46-0.46-0.46","753","z",""
"","call-function","418","345","0.0-2.0-0.46-1.46-1.46-0.46","","",""
"","canvas-keyboard-response","419","345","0.0-2.0-0.46-1.46-2.46-0.46","null","null",""
"","canvas-keyboard-response","420","346","0.0-2.0-0.46-1.46-3.46-0.46","730","m",""
"","canvas-keyboard-response","421","346","0.0-2.0-0.46-1.46-4.46-0.46","null","null",""
"","canvas-keyboard-response","422","347","0.0-2.0-0.46-1.46-5.46-0.46","null","null",""
"","call-function","423","347","0.0-2.0-0.46-3.46","","",""
"","call-function","424","347","0.0-2.0-0.46-4.46","","","{""trial_n"":47,""reward_probs"":{""2AA"":0.4089392780808963,""2AB"":0.4489199421030806,""2BA"":0.31698381876784465,""2BB"":0.3552001937084227},""step_1_action"":""1A"",""step_2"":""2B"",""transition"":""common"",""step_2_action"":""2BB"",""reward"":true,""timeout"":false}"
"","call-function","425","347","0.0-2.0-0.47-0.47","","",""
"","canvas-keyboard-response","426","348","0.0-2.0-0.47-1.47-0.47-0.47","618","m",""
"","call-function","427","348","0.0-2.0-0.47-1.47-1.47-0.47","","",""
"","canvas-keyboard-response","428","348","0.0-2.0-0.47-1.47-2.47-0.47","null","null",""
"","canvas-keyboard-response","429","348","0.0-2.0-0.47-1.47-3.47-0.47","1107","m",""
"","canvas-keyboard-response","430","349","0.0-2.0-0.47-1.47-4.47-0.47","null","null",""
"","canvas-keyboard-response","431","349","0.0-2.0-0.47-1.47-5.47-0.47","null","null",""
"","call-function","432","349","0.0-2.0-0.47-3.47","","",""
"","call-function","433","349","0.0-2.0-0.47-4.47","","","{""trial_n"":48,""reward_probs"":{""2AA"":0.4075032521188288,""2AB"":0.4273963407930041,""2BA"":0.3144812027781659,""2BB"":0.38355028146323306},""step_1_action"":""1A"",""step_2"":""2B"",""transition"":""rare"",""step_2_action"":""2BA"",""reward"":false,""timeout"":false}"
"","call-function","434","350","0.0-2.0-0.48-0.48","","",""
"","canvas-keyboard-response","435","350","0.0-2.0-0.48-1.48-0.48-0.48","609","z",""
"","call-function","436","350","0.0-2.0-0.48-1.48-1.48-0.48","","",""
"","canvas-keyboard-response","437","351","0.0-2.0-0.48-1.48-2.48-0.48","null","null",""
"","canvas-keyboard-response","438","351","0.0-2.0-0.48-1.48-3.48-0.48","711","z",""
"","canvas-keyboard-response","439","351","0.0-2.0-0.48-1.48-4.48-0.48","null","null",""
"","canvas-keyboard-response","440","351","0.0-2.0-0.48-1.48-5.48-0.48","null","null",""
"","call-function","441","351","0.0-2.0-0.48-3.48","","",""
"","call-function","442","351","0.0-2.0-0.48-4.48","","","{""trial_n"":49,""reward_probs"":{""2AA"":0.3811023231841295,""2AB"":0.44880841847537245,""2BA"":0.29713467115228914,""2BB"":0.36434024897490336},""step_1_action"":""1B"",""step_2"":""2B"",""transition"":""rare"",""step_2_action"":""2BB"",""reward"":true,""timeout"":false}"
"","call-function","443","352","0.0-2.0-0.49-0.49","","",""
"","canvas-keyboard-response","444","352","0.0-2.0-0.49-1.49-0.49-0.49","814","m",""
"","call-function","445","352","0.0-2.0-0.49-1.49-1.49-0.49","","",""
"","canvas-keyboard-response","446","352","0.0-2.0-0.49-1.49-2.49-0.49","null","null",""
"","canvas-keyboard-response","447","352","0.0-2.0-0.49-1.49-3.49-0.49","593","m",""
"","canvas-keyboard-response","448","353","0.0-2.0-0.49-1.49-4.49-0.49","null","null",""
"","canvas-keyboard-response","449","353","0.0-2.0-0.49-1.49-5.49-0.49","null","null",""
"","call-function","450","353","0.0-2.0-0.49-3.49","","",""
"","call-function","451","353","0.0-2.0-0.49-4.49","","","{""trial_n"":50,""reward_probs"":{""2AA"":0.3748651330672515,""2AB"":0.3789899825778341,""2BA"":0.340395564434108,""2BB"":0.3550560383979906},""step_1_action"":""1A"",""step_2"":""2A"",""transition"":""common"",""step_2_action"":""2AB"",""reward"":false,""timeout"":false}"
"","call-function","452","353","0.0-2.0-0.50-0.50","","",""
"","canvas-keyboard-response","453","353","0.0-2.0-0.50-1.50-0.50-0.50","894","m",""
"","call-function","454","354","0.0-2.0-0.50-1.50-1.50-0.50","","",""
"","canvas-keyboard-response","455","354","0.0-2.0-0.50-1.50-2.50-0.50","null","null",""
"","canvas-keyboard-response","456","354","0.0-2.0-0.50-1.50-3.50-0.50","569","z",""
"","canvas-keyboard-response","457","354","0.0-2.0-0.50-1.50-4.50-0.50","null","null",""
"","canvas-keyboard-response","458","354","0.0-2.0-0.50-1.50-5.50-0.50","null","null",""
"","call-function","459","354","0.0-2.0-0.50-3.50","","",""
"","call-function","460","355","0.0-2.0-0.50-4.50","","","{""trial_n"":51,""reward_probs"":{""2AA"":0.42846461296644694,""2AB"":0.390620346360994,""2BA"":0.34618763218383564,""2BB"":0.3568993271436833},""step_1_action"":""1A"",""step_2"":""2A"",""transition"":""common"",""step_2_action"":""2AB"",""reward"":true,""timeout"":false}"
"","call-function","461","355","0.0-2.0-0.51-0.51","","",""
"","canvas-keyboard-response","462","355","0.0-2.0-0.51-1.51-0.51-0.51","535","m",""
"","call-function","463","355","0.0-2.0-0.51-1.51-1.51-0.51","","",""
"","canvas-keyboard-response","464","355","0.0-2.0-0.51-1.51-2.51-0.51","null","null",""
"","canvas-keyboard-response","465","355","0.0-2.0-0.51-1.51-3.51-0.51","482","z",""
"","canvas-keyboard-response","466","355","0.0-2.0-0.51-1.51-4.51-0.51","null","null",""
"","canvas-keyboard-response","467","356","0.0-2.0-0.51-1.51-5.51-0.51","null","null",""
"","call-function","468","356","0.0-2.0-0.51-3.51","","",""
"","call-function","469","356","0.0-2.0-0.51-4.51","","","{""trial_n"":52,""reward_probs"":{""2AA"":0.41631345524889196,""2AB"":0.4046570185588404,""2BA"":0.36719629433670903,""2BB"":0.3521154252354423},""step_1_action"":""1B"",""step_2"":""2B"",""transition"":""common"",""step_2_action"":""2BA"",""reward"":true,""timeout"":false}"
"","call-function","470","356","0.0-2.0-0.52-0.52","","",""
"","canvas-keyboard-response","471","356","0.0-2.0-0.52-1.52-0.52-0.52","387","m",""
"","call-function","472","356","0.0-2.0-0.52-1.52-1.52-0.52","","",""
"","canvas-keyboard-response","473","356","0.0-2.0-0.52-1.52-2.52-0.52","null","null",""
"","canvas-keyboard-response","474","357","0.0-2.0-0.52-1.52-3.52-0.52","480","z",""
"","canvas-keyboard-response","475","357","0.0-2.0-0.52-1.52-4.52-0.52","null","null",""
"","canvas-keyboard-response","476","357","0.0-2.0-0.52-1.52-5.52-0.52","null","null",""
"","call-function","477","357","0.0-2.0-0.52-3.52","","",""
"","call-function","478","357","0.0-2.0-0.52-4.52","","","{""trial_n"":53,""reward_probs"":{""2AA"":0.4419367509639247,""2AB"":0.42341834365323755,""2BA"":0.39787941564914847,""2BB"":0.3490780833715636},""step_1_action"":""1B"",""step_2"":""2B"",""transition"":""common"",""step_2_action"":""2BA"",""reward"":false,""timeout"":false}"
"","call-function","479","357","0.0-2.0-0.53-0.53","","",""
"","canvas-keyboard-response","480","358","0.0-2.0-0.53-1.53-0.53-0.53","549","m",""
"","call-function","481","358","0.0-2.0-0.53-1.53-1.53-0.53","","",""
"","canvas-keyboard-response","482","358","0.0-2.0-0.53-1.53-2.53-0.53","null","null",""
"","canvas-keyboard-response","483","358","0.0-2.0-0.53-1.53-3.53-0.53","705","z",""
"","canvas-keyboard-response","484","358","0.0-2.0-0.53-1.53-4.53-0.53","null","null",""
"","canvas-keyboard-response","485","358","0.0-2.0-0.53-1.53-5.53-0.53","null","null",""
"","call-function","486","359","0.0-2.0-0.53-3.53","","",""
"","call-function","487","359","0.0-2.0-0.53-4.53","","","{""trial_n"":54,""reward_probs"":{""2AA"":0.4554983415223041,""2AB"":0.38176858098345196,""2BA"":0.3670582550657989,""2BB"":0.3300170998186075},""step_1_action"":""1B"",""step_2"":""2A"",""transition"":""rare"",""step_2_action"":""2AB"",""reward"":true,""timeout"":false}"
"","call-function","488","359","0.0-2.0-0.54-0.54","","",""
"","canvas-keyboard-response","489","359","0.0-2.0-0.54-1.54-0.54-0.54","546","m",""
"","call-function","490","359","0.0-2.0-0.54-1.54-1.54-0.54","","",""
"","canvas-keyboard-response","491","360","0.0-2.0-0.54-1.54-2.54-0.54","null","null",""
"","canvas-keyboard-response","492","360","0.0-2.0-0.54-1.54-3.54-0.54","786","z",""
"","canvas-keyboard-response","493","360","0.0-2.0-0.54-1.54-4.54-0.54","null","null",""
"","canvas-keyboard-response","494","360","0.0-2.0-0.54-1.54-5.54-0.54","null","null",""
"","call-function","495","360","0.0-2.0-0.54-3.54","","",""
"","call-function","496","360","0.0-2.0-0.54-4.54","","","{""trial_n"":55,""reward_probs"":{""2AA"":0.45965771231228425,""2AB"":0.41688896864715075,""2BA"":0.35085292442136784,""2BB"":0.35288708861127127},""step_1_action"":""1B"",""step_2"":""2B"",""transition"":""common"",""step_2_action"":""2BB"",""reward"":true,""timeout"":false}"
"","call-function","497","360","0.0-2.0-0.55-0.55","","",""
"","canvas-keyboard-response","498","361","0.0-2.0-0.55-1.55-0.55-0.55","923","z",""
"","call-function","499","361","0.0-2.0-0.55-1.55-1.55-0.55","","",""
"","canvas-keyboard-response","500","361","0.0-2.0-0.55-1.55-2.55-0.55","null","null",""
"","canvas-keyboard-response","501","361","0.0-2.0-0.55-1.55-3.55-0.55","489","z",""
"","canvas-keyboard-response","502","361","0.0-2.0-0.55-1.55-4.55-0.55","null","null",""
"","canvas-keyboard-response","503","361","0.0-2.0-0.55-1.55-5.55-0.55","null","null",""
"","call-function","504","362","0.0-2.0-0.55-3.55","","",""
"","call-function","505","362","0.0-2.0-0.55-4.55","","","{""trial_n"":56,""reward_probs"":{""2AA"":0.49540112457599417,""2AB"":0.4055929268443849,""2BA"":0.36521849039994886,""2BB"":0.2983343763273708},""step_1_action"":""1B"",""step_2"":""2B"",""transition"":""rare"",""step_2_action"":""2BA"",""reward"":false,""timeout"":false}"
"","call-function","506","362","0.0-2.0-0.56-0.56","","",""
"","canvas-keyboard-response","507","362","0.0-2.0-0.56-1.56-0.56-0.56","850","z",""
"","call-function","508","362","0.0-2.0-0.56-1.56-1.56-0.56","","",""
"","canvas-keyboard-response","509","363","0.0-2.0-0.56-1.56-2.56-0.56","null","null",""
"","canvas-keyboard-response","510","364","0.0-2.0-0.56-1.56-3.56-0.56","465","m",""
"","canvas-keyboard-response","511","364","0.0-2.0-0.56-1.56-4.56-0.56","null","null",""
"","canvas-keyboard-response","512","364","0.0-2.0-0.56-1.56-5.56-0.56","null","null",""
"","call-function","513","364","0.0-2.0-0.56-3.56","","",""
"","call-function","514","364","0.0-2.0-0.56-4.56","","","{""trial_n"":57,""reward_probs"":{""2AA"":0.5283177648028589,""2AB"":0.3606954662168306,""2BA"":0.40248746799503415,""2BB"":0.2508850230499431},""step_1_action"":""1A"",""step_2"":""2A"",""transition"":""rare"",""step_2_action"":""2AB"",""reward"":true,""timeout"":false}"
"","call-function","515","366","0.0-2.0-0.57-0.57","","",""
"","canvas-keyboard-response","516","367","0.0-2.0-0.57-1.57-0.57-0.57","626","m",""
"","call-function","517","368","0.0-2.0-0.57-1.57-1.57-0.57","","",""
"","canvas-keyboard-response","518","368","0.0-2.0-0.57-1.57-2.57-0.57","null","null",""
"","canvas-keyboard-response","519","368","0.0-2.0-0.57-1.57-3.57-0.57","463","m",""
"","canvas-keyboard-response","520","368","0.0-2.0-0.57-1.57-4.57-0.57","null","null",""
"","canvas-keyboard-response","521","368","0.0-2.0-0.57-1.57-5.57-0.57","null","null",""
"","call-function","522","369","0.0-2.0-0.57-3.57","","",""
"","call-function","523","369","0.0-2.0-0.57-4.57","","","{""trial_n"":58,""reward_probs"":{""2AA"":0.516033640616909,""2AB"":0.34818795108367895,""2BA"":0.3891556596653752,""2BB"":0.2575920040816966},""step_1_action"":""1B"",""step_2"":""2A"",""transition"":""rare"",""step_2_action"":""2AA"",""reward"":false,""timeout"":false}"
"","call-function","524","369","0.0-2.0-0.58-0.58","","",""
"","canvas-keyboard-response","525","369","0.0-2.0-0.58-1.58-0.58-0.58","818","z",""
"","call-function","526","369","0.0-2.0-0.58-1.58-1.58-0.58","","",""
"","canvas-keyboard-response","527","370","0.0-2.0-0.58-1.58-2.58-0.58","null","null",""
"","canvas-keyboard-response","528","370","0.0-2.0-0.58-1.58-3.58-0.58","558","z",""
"","canvas-keyboard-response","529","370","0.0-2.0-0.58-1.58-4.58-0.58","null","null",""
"","canvas-keyboard-response","530","370","0.0-2.0-0.58-1.58-5.58-0.58","null","null",""
"","call-function","531","370","0.0-2.0-0.58-3.58","","",""
"","call-function","532","371","0.0-2.0-0.58-4.58","","","{""trial_n"":59,""reward_probs"":{""2AA"":0.5166902653705919,""2AB"":0.36111218268055295,""2BA"":0.38826442827992824,""2BB"":0.2884886835815233},""step_1_action"":""1A"",""step_2"":""2B"",""transition"":""common"",""step_2_action"":""2BA"",""reward"":false,""timeout"":false}"
"","call-function","533","371","0.0-2.0-0.59-0.59","","",""
"","canvas-keyboard-response","534","371","0.0-2.0-0.59-1.59-0.59-0.59","563","m",""
"","call-function","535","371","0.0-2.0-0.59-1.59-1.59-0.59","","",""
"","canvas-keyboard-response","536","371","0.0-2.0-0.59-1.59-2.59-0.59","null","null",""
"","canvas-keyboard-response","537","371","0.0-2.0-0.59-1.59-3.59-0.59","694","m",""
"","canvas-keyboard-response","538","371","0.0-2.0-0.59-1.59-4.59-0.59","null","null",""
"","canvas-keyboard-response","539","372","0.0-2.0-0.59-1.59-5.59-0.59","null","null",""
"","call-function","540","372","0.0-2.0-0.59-3.59","","",""
"","call-function","541","372","0.0-2.0-0.59-4.59","","","{""trial_n"":60,""reward_probs"":{""2AA"":0.5422658532803095,""2AB"":0.39497926520285986,""2BA"":0.3701235261334318,""2BB"":0.27600332309413644},""step_1_action"":""1B"",""step_2"":""2B"",""transition"":""common"",""step_2_action"":""2BA"",""reward"":true,""timeout"":false}"
"","call-function","542","372","0.0-2.0-0.60-0.60","","",""
"","canvas-keyboard-response","543","372","0.0-2.0-0.60-1.60-0.60-0.60","536","m",""
"","call-function","544","372","0.0-2.0-0.60-1.60-1.60-0.60","","",""
"","canvas-keyboard-response","545","372","0.0-2.0-0.60-1.60-2.60-0.60","null","null",""
"","canvas-keyboard-response","546","379","0.0-2.0-0.60-1.60-3.60-0.60","857","z",""
"","canvas-keyboard-response","547","380","0.0-2.0-0.60-1.60-4.60-0.60","null","null",""
"","canvas-keyboard-response","548","381","0.0-2.0-0.60-1.60-5.60-0.60","null","null",""
"","call-function","549","381","0.0-2.0-0.60-3.60","","",""
"","call-function","550","381","0.0-2.0-0.60-4.60","","","{""trial_n"":61,""reward_probs"":{""2AA"":0.5599924244965223,""2AB"":0.33071800055229117,""2BA"":0.37226517618313654,""2BB"":0.253539954608012},""step_1_action"":""1B"",""step_2"":""2B"",""transition"":""common"",""step_2_action"":""2BA"",""reward"":false,""timeout"":false}"
"","call-function","551","382","0.0-2.0-0.61-0.61","","",""
"","canvas-keyboard-response","552","382","0.0-2.0-0.61-1.61-0.61-0.61","578","m",""
"","call-function","553","383","0.0-2.0-0.61-1.61-1.61-0.61","","",""
"","canvas-keyboard-response","554","383","0.0-2.0-0.61-1.61-2.61-0.61","null","null",""
"","canvas-keyboard-response","555","383","0.0-2.0-0.61-1.61-3.61-0.61","616","z",""
"","canvas-keyboard-response","556","383","0.0-2.0-0.61-1.61-4.61-0.61","null","null",""
"","canvas-keyboard-response","557","383","0.0-2.0-0.61-1.61-5.61-0.61","null","null",""
"","call-function","558","389","0.0-2.0-0.61-3.61","","",""
"","call-function","559","389","0.0-2.0-0.61-4.61","","","{""trial_n"":62,""reward_probs"":{""2AA"":0.5300804940957076,""2AB"":0.31776665812945937,""2BA"":0.33378271359160894,""2BB"":0.26228806759786794},""step_1_action"":""1A"",""step_2"":""2B"",""transition"":""rare"",""step_2_action"":""2BB"",""reward"":true,""timeout"":false}"
"","call-function","560","389","0.0-2.0-0.62-0.62","","",""
"","canvas-keyboard-response","561","390","0.0-2.0-0.62-1.62-0.62-0.62","575","z",""
"","call-function","562","390","0.0-2.0-0.62-1.62-1.62-0.62","","",""
"","canvas-keyboard-response","563","390","0.0-2.0-0.62-1.62-2.62-0.62","null","null",""
"","canvas-keyboard-response","564","390","0.0-2.0-0.62-1.62-3.62-0.62","527","m",""
"","canvas-keyboard-response","565","390","0.0-2.0-0.62-1.62-4.62-0.62","null","null",""
"","canvas-keyboard-response","566","390","0.0-2.0-0.62-1.62-5.62-0.62","null","null",""
"","call-function","567","391","0.0-2.0-0.62-3.62","","",""
"","call-function","568","391","0.0-2.0-0.62-4.62","","","{""trial_n"":63,""reward_probs"":{""2AA"":0.4860527637579497,""2AB"":0.3120785504661243,""2BA"":0.34463708007653066,""2BB"":0.25606006361112843},""step_1_action"":""1B"",""step_2"":""2A"",""transition"":""common"",""step_2_action"":""2AA"",""reward"":false,""timeout"":false}"
"","call-function","569","391","0.0-2.0-0.63-0.63","","",""
"","canvas-keyboard-response","570","391","0.0-2.0-0.63-1.63-0.63-0.63","701","m",""
"","call-function","571","391","0.0-2.0-0.63-1.63-1.63-0.63","","",""
"","canvas-keyboard-response","572","391","0.0-2.0-0.63-1.63-2.63-0.63","null","null",""
"","canvas-keyboard-response","573","391","0.0-2.0-0.63-1.63-3.63-0.63","924","z",""
"","canvas-keyboard-response","574","392","0.0-2.0-0.63-1.63-4.63-0.63","null","null",""
"","canvas-keyboard-response","575","392","0.0-2.0-0.63-1.63-5.63-0.63","null","null",""
"","call-function","576","392","0.0-2.0-0.63-3.63","","",""
"","call-function","577","392","0.0-2.0-0.63-4.63","","","{""trial_n"":64,""reward_probs"":{""2AA"":0.47131260817192155,""2AB"":0.30242809467178333,""2BA"":0.3399196620093269,""2BB"":0.2711652308240544},""step_1_action"":""1A"",""step_2"":""2A"",""transition"":""common"",""step_2_action"":""2AA"",""reward"":false,""timeout"":false}"
"","call-function","578","392","0.0-2.0-0.64-0.64","","",""
"","canvas-keyboard-response","579","392","0.0-2.0-0.64-1.64-0.64-0.64","548","m",""
"","call-function","580","392","0.0-2.0-0.64-1.64-1.64-0.64","","",""
"","canvas-keyboard-response","581","393","0.0-2.0-0.64-1.64-2.64-0.64","null","null",""
"","canvas-keyboard-response","582","393","0.0-2.0-0.64-1.64-3.64-0.64","570","z",""
"","canvas-keyboard-response","583","393","0.0-2.0-0.64-1.64-4.64-0.64","null","null",""
"","canvas-keyboard-response","584","393","0.0-2.0-0.64-1.64-5.64-0.64","null","null",""
"","call-function","585","393","0.0-2.0-0.64-3.64","","",""
"","call-function","586","393","0.0-2.0-0.64-4.64","","","{""trial_n"":65,""reward_probs"":{""2AA"":0.4920870958925168,""2AB"":0.3662521453253943,""2BA"":0.4041546916755374,""2BB"":0.2871745825932756},""step_1_action"":""1A"",""step_2"":""2A"",""transition"":""common"",""step_2_action"":""2AA"",""reward"":false,""timeout"":false}"
"","call-function","587","393","0.0-2.0-0.65-0.65","","",""
"","canvas-keyboard-response","588","393","0.0-2.0-0.65-1.65-0.65-0.65","577","z",""
"","call-function","589","394","0.0-2.0-0.65-1.65-1.65-0.65","","",""
"","canvas-keyboard-response","590","394","0.0-2.0-0.65-1.65-2.65-0.65","null","null",""
"","canvas-keyboard-response","591","394","0.0-2.0-0.65-1.65-3.65-0.65","641","z",""
"","canvas-keyboard-response","592","394","0.0-2.0-0.65-1.65-4.65-0.65","null","null",""
"","canvas-keyboard-response","593","394","0.0-2.0-0.65-1.65-5.65-0.65","null","null",""
"","call-function","594","394","0.0-2.0-0.65-3.65","","",""
"","call-function","595","394","0.0-2.0-0.65-4.65","","","{""trial_n"":66,""reward_probs"":{""2AA"":0.4792069441645761,""2AB"":0.36823598952321995,""2BA"":0.37467351245807373,""2BB"":0.286689583837879},""step_1_action"":""1B"",""step_2"":""2A"",""transition"":""common"",""step_2_action"":""2AA"",""reward"":false,""timeout"":false}"
"","call-function","596","395","0.0-2.0-0.66-0.66","","",""
"","canvas-keyboard-response","597","395","0.0-2.0-0.66-1.66-0.66-0.66","555","m",""
"","call-function","598","395","0.0-2.0-0.66-1.66-1.66-0.66","","",""
"","canvas-keyboard-response","599","395","0.0-2.0-0.66-1.66-2.66-0.66","null","null",""
"","canvas-keyboard-response","600","395","0.0-2.0-0.66-1.66-3.66-0.66","529","z",""
"","canvas-keyboard-response","601","395","0.0-2.0-0.66-1.66-4.66-0.66","null","null",""
"","canvas-keyboard-response","602","396","0.0-2.0-0.66-1.66-5.66-0.66","null","null",""
"","call-function","603","396","0.0-2.0-0.66-3.66","","",""
"","call-function","604","398","0.0-2.0-0.66-4.66","","","{""trial_n"":67,""reward_probs"":{""2AA"":0.4910870511484308,""2AB"":0.3052075411702447,""2BA"":0.34127686360956827,""2BB"":0.3226831295237893},""step_1_action"":""1A"",""step_2"":""2B"",""transition"":""rare"",""step_2_action"":""2BB"",""reward"":true,""timeout"":false}"
"","call-function","605","399","0.0-2.0-0.67-0.67","","",""
"","canvas-keyboard-response","606","399","0.0-2.0-0.67-1.67-0.67-0.67","613","m",""
"","call-function","607","399","0.0-2.0-0.67-1.67-1.67-0.67","","",""
"","canvas-keyboard-response","608","400","0.0-2.0-0.67-1.67-2.67-0.67","null","null",""
"","canvas-keyboard-response","609","400","0.0-2.0-0.67-1.67-3.67-0.67","442","m",""
"","canvas-keyboard-response","610","400","0.0-2.0-0.67-1.67-4.67-0.67","null","null",""
"","canvas-keyboard-response","611","400","0.0-2.0-0.67-1.67-5.67-0.67","null","null",""
"","call-function","612","400","0.0-2.0-0.67-3.67","","",""
"","call-function","613","400","0.0-2.0-0.67-4.67","","","{""trial_n"":68,""reward_probs"":{""2AA"":0.4931438367270027,""2AB"":0.2758434571673525,""2BA"":0.33155544956124255,""2BB"":0.3464493361977301},""step_1_action"":""1A"",""step_2"":""2B"",""transition"":""rare"",""step_2_action"":""2BA"",""reward"":true,""timeout"":false}"
"","call-function","614","401","0.0-2.0-0.68-0.68","","",""
"","canvas-keyboard-response","615","401","0.0-2.0-0.68-1.68-0.68-0.68","667","z",""
"","call-function","616","401","0.0-2.0-0.68-1.68-1.68-0.68","","",""
"","canvas-keyboard-response","617","401","0.0-2.0-0.68-1.68-2.68-0.68","null","null",""
"","canvas-keyboard-response","618","401","0.0-2.0-0.68-1.68-3.68-0.68","557","m",""
"","canvas-keyboard-response","619","401","0.0-2.0-0.68-1.68-4.68-0.68","null","null",""
"","canvas-keyboard-response","620","402","0.0-2.0-0.68-1.68-5.68-0.68","null","null",""
"","call-function","621","402","0.0-2.0-0.68-3.68","","",""
"","call-function","622","402","0.0-2.0-0.68-4.68","","","{""trial_n"":69,""reward_probs"":{""2AA"":0.5513951033807798,""2AB"":0.3178536287928859,""2BA"":0.3423678759111186,""2BB"":0.38947830338072376},""step_1_action"":""1A"",""step_2"":""2B"",""transition"":""common"",""step_2_action"":""2BA"",""reward"":false,""timeout"":false}"
"","call-function","623","402","0.0-2.0-0.69-0.69","","",""
"","canvas-keyboard-response","624","402","0.0-2.0-0.69-1.69-0.69-0.69","432","m",""
"","call-function","625","402","0.0-2.0-0.69-1.69-1.69-0.69","","",""
"","canvas-keyboard-response","626","402","0.0-2.0-0.69-1.69-2.69-0.69","null","null",""
"","canvas-keyboard-response","627","403","0.0-2.0-0.69-1.69-3.69-0.69","524","m",""
"","canvas-keyboard-response","628","403","0.0-2.0-0.69-1.69-4.69-0.69","null","null",""
"","canvas-keyboard-response","629","403","0.0-2.0-0.69-1.69-5.69-0.69","null","null",""
"","call-function","630","403","0.0-2.0-0.69-3.69","","",""
"","call-function","631","403","0.0-2.0-0.69-4.69","","","{""trial_n"":70,""reward_probs"":{""2AA"":0.5287178729920758,""2AB"":0.30201372883050587,""2BA"":0.30434277075436517,""2BB"":0.39445228113374137},""step_1_action"":""1B"",""step_2"":""2A"",""transition"":""rare"",""step_2_action"":""2AA"",""reward"":true,""timeout"":false}"
"","call-function","632","403","0.0-2.0-0.70-0.70","","",""
"","canvas-keyboard-response","633","404","0.0-2.0-0.70-1.70-0.70-0.70","866","m",""
"","call-function","634","404","0.0-2.0-0.70-1.70-1.70-0.70","","",""
"","canvas-keyboard-response","635","404","0.0-2.0-0.70-1.70-2.70-0.70","null","null",""
"","canvas-keyboard-response","636","404","0.0-2.0-0.70-1.70-3.70-0.70","621","z",""
"","canvas-keyboard-response","637","404","0.0-2.0-0.70-1.70-4.70-0.70","null","null",""
"","canvas-keyboard-response","638","404","0.0-2.0-0.70-1.70-5.70-0.70","null","null",""
"","call-function","639","404","0.0-2.0-0.70-3.70","","",""
"","call-function","640","405","0.0-2.0-0.70-4.70","","","{""trial_n"":71,""reward_probs"":{""2AA"":0.5336472779966611,""2AB"":0.3013340609599427,""2BA"":0.30081197142579175,""2BB"":0.3758548818504803},""step_1_action"":""1B"",""step_2"":""2B"",""transition"":""common"",""step_2_action"":""2BA"",""reward"":true,""timeout"":false}"
"","call-function","641","405","0.0-2.0-0.71-0.71","","",""
"","canvas-keyboard-response","642","405","0.0-2.0-0.71-1.71-0.71-0.71","557","m",""
"","call-function","643","405","0.0-2.0-0.71-1.71-1.71-0.71","","",""
"","canvas-keyboard-response","644","406","0.0-2.0-0.71-1.71-2.71-0.71","null","null",""
"","canvas-keyboard-response","645","406","0.0-2.0-0.71-1.71-3.71-0.71","720","m",""
"","canvas-keyboard-response","646","406","0.0-2.0-0.71-1.71-4.71-0.71","null","null",""
"","canvas-keyboard-response","647","406","0.0-2.0-0.71-1.71-5.71-0.71","null","null",""
"","call-function","648","406","0.0-2.0-0.71-3.71","","",""
"","call-function","649","406","0.0-2.0-0.71-4.71","","","{""trial_n"":72,""reward_probs"":{""2AA"":0.5440042507240745,""2AB"":0.32584174590935017,""2BA"":0.25407973058438094,""2BB"":0.3941783057073444},""step_1_action"":""1A"",""step_2"":""2A"",""transition"":""common"",""step_2_action"":""2AA"",""reward"":true,""timeout"":false}"
"","call-function","650","406","0.0-2.0-0.72-0.72","","",""
"","canvas-keyboard-response","651","407","0.0-2.0-0.72-1.72-0.72-0.72","423","m",""
"","call-function","652","407","0.0-2.0-0.72-1.72-1.72-0.72","","",""
"","canvas-keyboard-response","653","407","0.0-2.0-0.72-1.72-2.72-0.72","null","null",""
"","canvas-keyboard-response","654","407","0.0-2.0-0.72-1.72-3.72-0.72","573","m",""
"","canvas-keyboard-response","655","407","0.0-2.0-0.72-1.72-4.72-0.72","null","null",""
"","canvas-keyboard-response","656","407","0.0-2.0-0.72-1.72-5.72-0.72","null","null",""
"","call-function","657","407","0.0-2.0-0.72-3.72","","",""
"","call-function","658","407","0.0-2.0-0.72-4.72","","","{""trial_n"":73,""reward_probs"":{""2AA"":0.5649970590169868,""2AB"":0.35534030393726557,""2BA"":0.2531783270465425,""2BB"":0.3687355062764522},""step_1_action"":""1B"",""step_2"":""2B"",""transition"":""common"",""step_2_action"":""2BA"",""reward"":false,""timeout"":false}"
"","call-function","659","408","0.0-2.0-0.73-0.73","","",""
"","canvas-keyboard-response","660","408","0.0-2.0-0.73-1.73-0.73-0.73","560","z",""
"","call-function","661","408","0.0-2.0-0.73-1.73-1.73-0.73","","",""
"","canvas-keyboard-response","662","408","0.0-2.0-0.73-1.73-2.73-0.73","null","null",""
"","canvas-keyboard-response","663","408","0.0-2.0-0.73-1.73-3.73-0.73","505","m",""
"","canvas-keyboard-response","664","408","0.0-2.0-0.73-1.73-4.73-0.73","null","null",""
"","canvas-keyboard-response","665","408","0.0-2.0-0.73-1.73-5.73-0.73","null","null",""
"","call-function","666","408","0.0-2.0-0.73-3.73","","",""
"","call-function","667","409","0.0-2.0-0.73-4.73","","","{""trial_n"":74,""reward_probs"":{""2AA"":0.5737933786547901,""2AB"":0.3502221338229069,""2BA"":0.28844047323855687,""2BB"":0.3248744359195328},""step_1_action"":""1B"",""step_2"":""2A"",""transition"":""common"",""step_2_action"":""2AA"",""reward"":false,""timeout"":false}"
"","call-function","668","409","0.0-2.0-0.74-0.74","","",""
"","canvas-keyboard-response","669","409","0.0-2.0-0.74-1.74-0.74-0.74","768","m",""
"","call-function","670","409","0.0-2.0-0.74-1.74-1.74-0.74","","",""
"","canvas-keyboard-response","671","409","0.0-2.0-0.74-1.74-2.74-0.74","null","null",""
"","canvas-keyboard-response","672","409","0.0-2.0-0.74-1.74-3.74-0.74","787","z",""
"","canvas-keyboard-response","673","409","0.0-2.0-0.74-1.74-4.74-0.74","null","null",""
"","canvas-keyboard-response","674","409","0.0-2.0-0.74-1.74-5.74-0.74","null","null",""
"","call-function","675","410","0.0-2.0-0.74-3.74","","",""
"","call-function","676","410","0.0-2.0-0.74-4.74","","","{""trial_n"":75,""reward_probs"":{""2AA"":0.5656802035932207,""2AB"":0.37845529181031173,""2BA"":0.2779005408585703,""2BB"":0.3112466267064356},""step_1_action"":""1A"",""step_2"":""2A"",""transition"":""common"",""step_2_action"":""2AA"",""reward"":false,""timeout"":false}"
"","call-function","677","410","0.0-2.0-0.75-0.75","","",""
"","canvas-keyboard-response","678","410","0.0-2.0-0.75-1.75-0.75-0.75","650","m",""
"","call-function","679","410","0.0-2.0-0.75-1.75-1.75-0.75","","",""
"","canvas-keyboard-response","680","410","0.0-2.0-0.75-1.75-2.75-0.75","null","null",""
"","canvas-keyboard-response","681","410","0.0-2.0-0.75-1.75-3.75-0.75","784","z",""
"","canvas-keyboard-response","682","410","0.0-2.0-0.75-1.75-4.75-0.75","null","null",""
"","canvas-keyboard-response","683","411","0.0-2.0-0.75-1.75-5.75-0.75","null","null",""
"","call-function","684","411","0.0-2.0-0.75-3.75","","",""
"","call-function","685","411","0.0-2.0-0.75-4.75","","","{""trial_n"":76,""reward_probs"":{""2AA"":0.5353222240537445,""2AB"":0.3898014094346985,""2BA"":0.2612644214099913,""2BB"":0.3152461852657063},""step_1_action"":""1A"",""step_2"":""2B"",""transition"":""rare"",""step_2_action"":""2BB"",""reward"":false,""timeout"":false}"
"","call-function","686","411","0.0-2.0-0.76-0.76","","",""
"","canvas-keyboard-response","687","411","0.0-2.0-0.76-1.76-0.76-0.76","763","m",""
"","call-function","688","411","0.0-2.0-0.76-1.76-1.76-0.76","","",""
"","canvas-keyboard-response","689","412","0.0-2.0-0.76-1.76-2.76-0.76","null","null",""
"","canvas-keyboard-response","690","412","0.0-2.0-0.76-1.76-3.76-0.76","743","z",""
"","canvas-keyboard-response","691","412","0.0-2.0-0.76-1.76-4.76-0.76","null","null",""
"","canvas-keyboard-response","692","412","0.0-2.0-0.76-1.76-5.76-0.76","null","null",""
"","call-function","693","413","0.0-2.0-0.76-3.76","","",""
"","call-function","694","413","0.0-2.0-0.76-4.76","","","{""trial_n"":77,""reward_probs"":{""2AA"":0.5210223252359035,""2AB"":0.39124766805265604,""2BA"":0.2587966859512474,""2BB"":0.304549200839839},""step_1_action"":""1B"",""step_2"":""2B"",""transition"":""common"",""step_2_action"":""2BB"",""reward"":false,""timeout"":false}"
"","call-function","695","413","0.0-2.0-0.77-0.77","","",""
"","canvas-keyboard-response","696","414","0.0-2.0-0.77-1.77-0.77-0.77","601","m",""
"","call-function","697","414","0.0-2.0-0.77-1.77-1.77-0.77","","",""
"","canvas-keyboard-response","698","414","0.0-2.0-0.77-1.77-2.77-0.77","null","null",""
"","canvas-keyboard-response","699","414","0.0-2.0-0.77-1.77-3.77-0.77","554","z",""
"","canvas-keyboard-response","700","414","0.0-2.0-0.77-1.77-4.77-0.77","null","null",""
"","canvas-keyboard-response","701","414","0.0-2.0-0.77-1.77-5.77-0.77","null","null",""
"","call-function","702","414","0.0-2.0-0.77-3.77","","",""
"","call-function","703","414","0.0-2.0-0.77-4.77","","","{""trial_n"":78,""reward_probs"":{""2AA"":0.5541378911214235,""2AB"":0.4073095976194839,""2BA"":0.25996205135186745,""2BB"":0.33346614647021017},""step_1_action"":""1A"",""step_2"":""2B"",""transition"":""rare"",""step_2_action"":""2BB"",""reward"":false,""timeout"":false}"
"","call-function","704","414","0.0-2.0-0.78-0.78","","",""
"","canvas-keyboard-response","705","415","0.0-2.0-0.78-1.78-0.78-0.78","1328","z",""
"","call-function","706","415","0.0-2.0-0.78-1.78-1.78-0.78","","",""
"","canvas-keyboard-response","707","415","0.0-2.0-0.78-1.78-2.78-0.78","null","null",""
"","canvas-keyboard-response","708","415","0.0-2.0-0.78-1.78-3.78-0.78","543","m",""
"","canvas-keyboard-response","709","415","0.0-2.0-0.78-1.78-4.78-0.78","null","null",""
"","canvas-keyboard-response","710","424","0.0-2.0-0.78-1.78-5.78-0.78","null","null",""
"","call-function","711","425","0.0-2.0-0.78-3.78","","",""
"","call-function","712","425","0.0-2.0-0.78-4.78","","","{""trial_n"":79,""reward_probs"":{""2AA"":0.5406188789488309,""2AB"":0.42491006039202,""2BA"":0.2573843227426194,""2BB"":0.3584036080321292},""step_1_action"":""1A"",""step_2"":""2B"",""transition"":""common"",""step_2_action"":""2BA"",""reward"":true,""timeout"":false}"
"","call-function","713","425","0.0-2.0-0.79-0.79","","",""
"","canvas-keyboard-response","714","425","0.0-2.0-0.79-1.79-0.79-0.79","829","z",""
"","call-function","715","425","0.0-2.0-0.79-1.79-1.79-0.79","","",""
"","canvas-keyboard-response","716","425","0.0-2.0-0.79-1.79-2.79-0.79","null","null",""
"","canvas-keyboard-response","717","426","0.0-2.0-0.79-1.79-3.79-0.79","471","m",""
"","canvas-keyboard-response","718","426","0.0-2.0-0.79-1.79-4.79-0.79","null","null",""
"","canvas-keyboard-response","719","426","0.0-2.0-0.79-1.79-5.79-0.79","null","null",""
"","call-function","720","426","0.0-2.0-0.79-3.79","","",""
"","call-function","721","426","0.0-2.0-0.79-4.79","","","{""trial_n"":80,""reward_probs"":{""2AA"":0.5036554812864278,""2AB"":0.44160668025274086,""2BA"":0.27862104579126823,""2BB"":0.33172096528436323},""step_1_action"":""1A"",""step_2"":""2B"",""transition"":""common"",""step_2_action"":""2BA"",""reward"":false,""timeout"":false}"
"","call-function","722","426","0.0-2.0-0.80-0.80","","",""
"","canvas-keyboard-response","723","426","0.0-2.0-0.80-1.80-0.80-0.80","673","m",""
"","call-function","724","426","0.0-2.0-0.80-1.80-1.80-0.80","","",""
"","canvas-keyboard-response","725","427","0.0-2.0-0.80-1.80-2.80-0.80","null","null",""
"","canvas-keyboard-response","726","427","0.0-2.0-0.80-1.80-3.80-0.80","602","m",""
"","canvas-keyboard-response","727","427","0.0-2.0-0.80-1.80-4.80-0.80","null","null",""
"","canvas-keyboard-response","728","427","0.0-2.0-0.80-1.80-5.80-0.80","null","null",""
"","call-function","729","427","0.0-2.0-0.80-3.80","","",""
"","call-function","730","427","0.0-2.0-0.80-4.80","","","{""trial_n"":81,""reward_probs"":{""2AA"":0.4740505899082834,""2AB"":0.482635328403792,""2BA"":0.27460972125860833,""2BB"":0.3448930403275155},""step_1_action"":""1A"",""step_2"":""2A"",""transition"":""common"",""step_2_action"":""2AA"",""reward"":false,""timeout"":false}"
"","call-function","731","428","0.0-2.0-0.81-0.81","","",""
"","canvas-keyboard-response","732","428","0.0-2.0-0.81-1.81-0.81-0.81","563","m",""
"","call-function","733","428","0.0-2.0-0.81-1.81-1.81-0.81","","",""
"","canvas-keyboard-response","734","428","0.0-2.0-0.81-1.81-2.81-0.81","null","null",""
"","canvas-keyboard-response","735","428","0.0-2.0-0.81-1.81-3.81-0.81","511","z",""
"","canvas-keyboard-response","736","428","0.0-2.0-0.81-1.81-4.81-0.81","null","null",""
"","canvas-keyboard-response","737","428","0.0-2.0-0.81-1.81-5.81-0.81","null","null",""
"","call-function","738","430","0.0-2.0-0.81-3.81","","",""
"","call-function","739","431","0.0-2.0-0.81-4.81","","","{""trial_n"":82,""reward_probs"":{""2AA"":0.44259462266460287,""2AB"":0.4328815324724495,""2BA"":0.26082821551639285,""2BB"":0.329491783023524},""step_1_action"":""1A"",""step_2"":""2A"",""transition"":""common"",""step_2_action"":""2AB"",""reward"":true,""timeout"":false}"
"","call-function","740","431","0.0-2.0-0.82-0.82","","",""
"","canvas-keyboard-response","741","431","0.0-2.0-0.82-1.82-0.82-0.82","837","z",""
"","call-function","742","431","0.0-2.0-0.82-1.82-1.82-0.82","","",""
"","canvas-keyboard-response","743","431","0.0-2.0-0.82-1.82-2.82-0.82","null","null",""
"","canvas-keyboard-response","744","431","0.0-2.0-0.82-1.82-3.82-0.82","641","z",""
"","canvas-keyboard-response","745","432","0.0-2.0-0.82-1.82-4.82-0.82","null","null",""
"","canvas-keyboard-response","746","432","0.0-2.0-0.82-1.82-5.82-0.82","null","null",""
"","call-function","747","432","0.0-2.0-0.82-3.82","","",""
"","call-function","748","432","0.0-2.0-0.82-4.82","","","{""trial_n"":83,""reward_probs"":{""2AA"":0.4301442858762423,""2AB"":0.4311876404348565,""2BA"":0.2855095349609794,""2BB"":0.3434461322692366},""step_1_action"":""1B"",""step_2"":""2B"",""transition"":""rare"",""step_2_action"":""2BB"",""reward"":true,""timeout"":false}"
"","call-function","749","432","0.0-2.0-0.83-0.83","","",""
"","canvas-keyboard-response","750","433","0.0-2.0-0.83-1.83-0.83-0.83","980","m",""
"","call-function","751","433","0.0-2.0-0.83-1.83-1.83-0.83","","",""
"","canvas-keyboard-response","752","433","0.0-2.0-0.83-1.83-2.83-0.83","null","null",""
"","canvas-keyboard-response","753","434","0.0-2.0-0.83-1.83-3.83-0.83","1133","z",""
"","canvas-keyboard-response","754","434","0.0-2.0-0.83-1.83-4.83-0.83","null","null",""
"","canvas-keyboard-response","755","434","0.0-2.0-0.83-1.83-5.83-0.83","null","null",""
"","call-function","756","434","0.0-2.0-0.83-3.83","","",""
"","call-function","757","434","0.0-2.0-0.83-4.83","","","{""trial_n"":84,""reward_probs"":{""2AA"":0.41195455276132364,""2AB"":0.3984674486814395,""2BA"":0.25769229395088933,""2BB"":0.3541020599376321},""step_1_action"":""1A"",""step_2"":""2A"",""transition"":""common"",""step_2_action"":""2AA"",""reward"":false,""timeout"":false}"
"","call-function","758","435","0.0-2.0-0.84-0.84","","",""
"","canvas-keyboard-response","759","435","0.0-2.0-0.84-1.84-0.84-0.84","512","m",""
"","call-function","760","435","0.0-2.0-0.84-1.84-1.84-0.84","","",""
"","canvas-keyboard-response","761","435","0.0-2.0-0.84-1.84-2.84-0.84","null","null",""
"","canvas-keyboard-response","762","435","0.0-2.0-0.84-1.84-3.84-0.84","536","m",""
"","canvas-keyboard-response","763","435","0.0-2.0-0.84-1.84-4.84-0.84","null","null",""
"","canvas-keyboard-response","764","435","0.0-2.0-0.84-1.84-5.84-0.84","null","null",""
"","call-function","765","435","0.0-2.0-0.84-3.84","","",""
"","call-function","766","435","0.0-2.0-0.84-4.84","","","{""trial_n"":85,""reward_probs"":{""2AA"":0.36387010136523185,""2AB"":0.39917328853162115,""2BA"":0.25984381928773637,""2BB"":0.3826455689654359},""step_1_action"":""1A"",""step_2"":""2B"",""transition"":""rare"",""step_2_action"":""2BA"",""reward"":false,""timeout"":false}"
"","call-function","767","435","0.0-2.0-0.85-0.85","","",""
"","canvas-keyboard-response","768","441","0.0-2.0-0.85-1.85-0.85-0.85","516","z",""
"","call-function","769","441","0.0-2.0-0.85-1.85-1.85-0.85","","",""
"","canvas-keyboard-response","770","442","0.0-2.0-0.85-1.85-2.85-0.85","null","null",""
"","canvas-keyboard-response","771","442","0.0-2.0-0.85-1.85-3.85-0.85","665","m",""
"","canvas-keyboard-response","772","442","0.0-2.0-0.85-1.85-4.85-0.85","null","null",""
"","canvas-keyboard-response","773","442","0.0-2.0-0.85-1.85-5.85-0.85","null","null",""
"","call-function","774","442","0.0-2.0-0.85-3.85","","",""
"","call-function","775","442","0.0-2.0-0.85-4.85","","","{""trial_n"":86,""reward_probs"":{""2AA"":0.37997912923054394,""2AB"":0.43359031597104764,""2BA"":0.30856725565287507,""2BB"":0.3547363248227819},""step_1_action"":""1B"",""step_2"":""2A"",""transition"":""common"",""step_2_action"":""2AB"",""reward"":true,""timeout"":false}"
"","call-function","776","442","0.0-2.0-0.86-0.86","","",""
"","canvas-keyboard-response","777","442","0.0-2.0-0.86-1.86-0.86-0.86","586","m",""
"","call-function","778","443","0.0-2.0-0.86-1.86-1.86-0.86","","",""
"","canvas-keyboard-response","779","443","0.0-2.0-0.86-1.86-2.86-0.86","null","null",""
"","canvas-keyboard-response","780","443","0.0-2.0-0.86-1.86-3.86-0.86","554","m",""
"","canvas-keyboard-response","781","443","0.0-2.0-0.86-1.86-4.86-0.86","null","null",""
"","canvas-keyboard-response","782","443","0.0-2.0-0.86-1.86-5.86-0.86","null","null",""
"","call-function","783","443","0.0-2.0-0.86-3.86","","",""
"","call-function","784","443","0.0-2.0-0.86-4.86","","","{""trial_n"":87,""reward_probs"":{""2AA"":0.37996214518088434,""2AB"":0.4584640539106639,""2BA"":0.3154799053201611,""2BB"":0.34724569368087593},""step_1_action"":""1A"",""step_2"":""2A"",""transition"":""common"",""step_2_action"":""2AA"",""reward"":false,""timeout"":false}"
"","call-function","785","443","0.0-2.0-0.87-0.87","","",""
"","canvas-keyboard-response","786","443","0.0-2.0-0.87-1.87-0.87-0.87","622","z",""
"","call-function","787","443","0.0-2.0-0.87-1.87-1.87-0.87","","",""
"","canvas-keyboard-response","788","444","0.0-2.0-0.87-1.87-2.87-0.87","null","null",""
"","canvas-keyboard-response","789","444","0.0-2.0-0.87-1.87-3.87-0.87","672","m",""
"","canvas-keyboard-response","790","444","0.0-2.0-0.87-1.87-4.87-0.87","null","null",""
"","canvas-keyboard-response","791","444","0.0-2.0-0.87-1.87-5.87-0.87","null","null",""
"","call-function","792","444","0.0-2.0-0.87-3.87","","",""
"","call-function","793","444","0.0-2.0-0.87-4.87","","","{""trial_n"":88,""reward_probs"":{""2AA"":0.3633181347176878,""2AB"":0.4464997427955293,""2BA"":0.3403077745534519,""2BB"":0.35161733778913973},""step_1_action"":""1A"",""step_2"":""2A"",""transition"":""rare"",""step_2_action"":""2AA"",""reward"":true,""timeout"":false}"
"","call-function","794","444","0.0-2.0-0.88-0.88","","",""
"","canvas-keyboard-response","795","444","0.0-2.0-0.88-1.88-0.88-0.88","755","z",""
"","call-function","796","445","0.0-2.0-0.88-1.88-1.88-0.88","","",""
"","canvas-keyboard-response","797","445","0.0-2.0-0.88-1.88-2.88-0.88","null","null",""
"","canvas-keyboard-response","798","445","0.0-2.0-0.88-1.88-3.88-0.88","637","m",""
"","canvas-keyboard-response","799","445","0.0-2.0-0.88-1.88-4.88-0.88","null","null",""
"","canvas-keyboard-response","800","445","0.0-2.0-0.88-1.88-5.88-0.88","null","null",""
"","call-function","801","445","0.0-2.0-0.88-3.88","","",""
"","call-function","802","445","0.0-2.0-0.88-4.88","","","{""trial_n"":89,""reward_probs"":{""2AA"":0.3506913261254402,""2AB"":0.42663902526950725,""2BA"":0.3444241557387135,""2BB"":0.372271198668495},""step_1_action"":""1A"",""step_2"":""2B"",""transition"":""common"",""step_2_action"":""2BA"",""reward"":false,""timeout"":false}"
"","call-function","803","445","0.0-2.0-0.89-0.89","","",""
"","canvas-keyboard-response","804","445","0.0-2.0-0.89-1.89-0.89-0.89","631","m",""
"","call-function","805","446","0.0-2.0-0.89-1.89-1.89-0.89","","",""
"","canvas-keyboard-response","806","446","0.0-2.0-0.89-1.89-2.89-0.89","null","null",""
"","canvas-keyboard-response","807","446","0.0-2.0-0.89-1.89-3.89-0.89","768","z",""
"","canvas-keyboard-response","808","446","0.0-2.0-0.89-1.89-4.89-0.89","null","null",""
"","canvas-keyboard-response","809","447","0.0-2.0-0.89-1.89-5.89-0.89","null","null",""
"","call-function","810","447","0.0-2.0-0.89-3.89","","",""
"","call-function","811","447","0.0-2.0-0.89-4.89","","","{""trial_n"":90,""reward_probs"":{""2AA"":0.3523439351603045,""2AB"":0.43481889832015513,""2BA"":0.3440117416523603,""2BB"":0.3795963732434232},""step_1_action"":""1A"",""step_2"":""2A"",""transition"":""common"",""step_2_action"":""2AA"",""reward"":true,""timeout"":false}"
"","call-function","812","448","0.0-2.0-0.90-0.90","","",""
"","canvas-keyboard-response","813","448","0.0-2.0-0.90-1.90-0.90-0.90","507","m",""
"","call-function","814","448","0.0-2.0-0.90-1.90-1.90-0.90","","",""
"","canvas-keyboard-response","815","448","0.0-2.0-0.90-1.90-2.90-0.90","null","null",""
"","canvas-keyboard-response","816","448","0.0-2.0-0.90-1.90-3.90-0.90","662","m",""
"","canvas-keyboard-response","817","448","0.0-2.0-0.90-1.90-4.90-0.90","null","null",""
"","canvas-keyboard-response","818","448","0.0-2.0-0.90-1.90-5.90-0.90","null","null",""
"","call-function","819","448","0.0-2.0-0.90-3.90","","",""
"","call-function","820","449","0.0-2.0-0.90-4.90","","","{""trial_n"":91,""reward_probs"":{""2AA"":0.34781565913865614,""2AB"":0.46158554991837414,""2BA"":0.3471357006739069,""2BB"":0.38197981210383875},""step_1_action"":""1B"",""step_2"":""2A"",""transition"":""rare"",""step_2_action"":""2AB"",""reward"":true,""timeout"":false}"
"","call-function","821","449","0.0-2.0-0.91-0.91","","",""
"","canvas-keyboard-response","822","449","0.0-2.0-0.91-1.91-0.91-0.91","381","z",""
"","call-function","823","449","0.0-2.0-0.91-1.91-1.91-0.91","","",""
"","canvas-keyboard-response","824","449","0.0-2.0-0.91-1.91-2.91-0.91","null","null",""
"","canvas-keyboard-response","825","449","0.0-2.0-0.91-1.91-3.91-0.91","505","m",""
"","canvas-keyboard-response","826","449","0.0-2.0-0.91-1.91-4.91-0.91","null","null",""
"","canvas-keyboard-response","827","449","0.0-2.0-0.91-1.91-5.91-0.91","null","null",""
"","call-function","828","449","0.0-2.0-0.91-3.91","","",""
"","call-function","829","450","0.0-2.0-0.91-4.91","","","{""trial_n"":92,""reward_probs"":{""2AA"":0.3709873993706586,""2AB"":0.45435969703765405,""2BA"":0.3606138165202853,""2BB"":0.3945708736212489},""step_1_action"":""1B"",""step_2"":""2B"",""transition"":""rare"",""step_2_action"":""2BA"",""reward"":false,""timeout"":false}"
"","call-function","830","450","0.0-2.0-0.92-0.92","","",""
"","canvas-keyboard-response","831","450","0.0-2.0-0.92-1.92-0.92-0.92","492","z",""
"","call-function","832","450","0.0-2.0-0.92-1.92-1.92-0.92","","",""
"","canvas-keyboard-response","833","450","0.0-2.0-0.92-1.92-2.92-0.92","null","null",""
"","canvas-keyboard-response","834","450","0.0-2.0-0.92-1.92-3.92-0.92","675","z",""
"","canvas-keyboard-response","835","450","0.0-2.0-0.92-1.92-4.92-0.92","null","null",""
"","canvas-keyboard-response","836","450","0.0-2.0-0.92-1.92-5.92-0.92","null","null",""
"","call-function","837","450","0.0-2.0-0.92-3.92","","",""
"","call-function","838","450","0.0-2.0-0.92-4.92","","","{""trial_n"":93,""reward_probs"":{""2AA"":0.3876878628104407,""2AB"":0.495721702992992,""2BA"":0.343232714264316,""2BB"":0.36758595174228614},""step_1_action"":""1A"",""step_2"":""2B"",""transition"":""common"",""step_2_action"":""2BB"",""reward"":true,""timeout"":false}"
"","call-function","839","451","0.0-2.0-0.93-0.93","","",""
"","canvas-keyboard-response","840","451","0.0-2.0-0.93-1.93-0.93-0.93","535","m",""
"","call-function","841","451","0.0-2.0-0.93-1.93-1.93-0.93","","",""
"","canvas-keyboard-response","842","451","0.0-2.0-0.93-1.93-2.93-0.93","null","null",""
"","canvas-keyboard-response","843","451","0.0-2.0-0.93-1.93-3.93-0.93","755","z",""
"","canvas-keyboard-response","844","451","0.0-2.0-0.93-1.93-4.93-0.93","null","null",""
"","canvas-keyboard-response","845","451","0.0-2.0-0.93-1.93-5.93-0.93","null","null",""
"","call-function","846","451","0.0-2.0-0.93-3.93","","",""
"","call-function","847","451","0.0-2.0-0.93-4.93","","","{""trial_n"":94,""reward_probs"":{""2AA"":0.3737454055699689,""2AB"":0.4546495604497025,""2BA"":0.3431887103850077,""2BB"":0.3511602212188629},""step_1_action"":""1A"",""step_2"":""2A"",""transition"":""common"",""step_2_action"":""2AA"",""reward"":false,""timeout"":false}"
"","call-function","848","451","0.0-2.0-0.94-0.94","","",""
"","canvas-keyboard-response","849","452","0.0-2.0-0.94-1.94-0.94-0.94","503","m",""
"","call-function","850","452","0.0-2.0-0.94-1.94-1.94-0.94","","",""
"","canvas-keyboard-response","851","452","0.0-2.0-0.94-1.94-2.94-0.94","null","null",""
"","canvas-keyboard-response","852","452","0.0-2.0-0.94-1.94-3.94-0.94","578","m",""
"","canvas-keyboard-response","853","452","0.0-2.0-0.94-1.94-4.94-0.94","null","null",""
"","canvas-keyboard-response","854","452","0.0-2.0-0.94-1.94-5.94-0.94","null","null",""
"","call-function","855","452","0.0-2.0-0.94-3.94","","",""
"","call-function","856","452","0.0-2.0-0.94-4.94","","","{""trial_n"":95,""reward_probs"":{""2AA"":0.39413331373789845,""2AB"":0.459699839957232,""2BA"":0.33145835511193367,""2BB"":0.2817437958761658},""step_1_action"":""1A"",""step_2"":""2A"",""transition"":""common"",""step_2_action"":""2AA"",""reward"":false,""timeout"":false}"
"","call-function","857","452","0.0-2.0-0.95-0.95","","",""
"","canvas-keyboard-response","858","452","0.0-2.0-0.95-1.95-0.95-0.95","712","z",""
"","call-function","859","453","0.0-2.0-0.95-1.95-1.95-0.95","","",""
"","canvas-keyboard-response","860","453","0.0-2.0-0.95-1.95-2.95-0.95","null","null",""
"","canvas-keyboard-response","861","453","0.0-2.0-0.95-1.95-3.95-0.95","549","z",""
"","canvas-keyboard-response","862","453","0.0-2.0-0.95-1.95-4.95-0.95","null","null",""
"","canvas-keyboard-response","863","453","0.0-2.0-0.95-1.95-5.95-0.95","null","null",""
"","call-function","864","453","0.0-2.0-0.95-3.95","","",""
"","call-function","865","453","0.0-2.0-0.95-4.95","","","{""trial_n"":96,""reward_probs"":{""2AA"":0.3925039485596514,""2AB"":0.454056925443272,""2BA"":0.31008434561573933,""2BB"":0.2953086756056806},""step_1_action"":""1B"",""step_2"":""2A"",""transition"":""common"",""step_2_action"":""2AA"",""reward"":false,""timeout"":false}"
"","call-function","866","453","0.0-2.0-0.96-0.96","","",""
"","canvas-keyboard-response","867","453","0.0-2.0-0.96-1.96-0.96-0.96","527","m",""
"","call-function","868","453","0.0-2.0-0.96-1.96-1.96-0.96","","",""
"","canvas-keyboard-response","869","454","0.0-2.0-0.96-1.96-2.96-0.96","null","null",""
"","canvas-keyboard-response","870","454","0.0-2.0-0.96-1.96-3.96-0.96","539","z",""
"","canvas-keyboard-response","871","454","0.0-2.0-0.96-1.96-4.96-0.96","null","null",""
"","canvas-keyboard-response","872","454","0.0-2.0-0.96-1.96-5.96-0.96","null","null",""
"","call-function","873","454","0.0-2.0-0.96-3.96","","",""
"","call-function","874","454","0.0-2.0-0.96-4.96","","","{""trial_n"":97,""reward_probs"":{""2AA"":0.387150287572203,""2AB"":0.459831374055512,""2BA"":0.31666977053981854,""2BB"":0.3103048457929583},""step_1_action"":""1A"",""step_2"":""2B"",""transition"":""rare"",""step_2_action"":""2BB"",""reward"":false,""timeout"":false}"
"","call-function","875","454","0.0-2.0-0.97-0.97","","",""
"","canvas-keyboard-response","876","454","0.0-2.0-0.97-1.97-0.97-0.97","464","m",""
"","call-function","877","454","0.0-2.0-0.97-1.97-1.97-0.97","","",""
"","canvas-keyboard-response","878","455","0.0-2.0-0.97-1.97-2.97-0.97","null","null",""
"","canvas-keyboard-response","879","455","0.0-2.0-0.97-1.97-3.97-0.97","588","m",""
"","canvas-keyboard-response","880","455","0.0-2.0-0.97-1.97-4.97-0.97","null","null",""
"","canvas-keyboard-response","881","455","0.0-2.0-0.97-1.97-5.97-0.97","null","null",""
"","call-function","882","455","0.0-2.0-0.97-3.97","","",""
"","call-function","883","455","0.0-2.0-0.97-4.97","","","{""trial_n"":98,""reward_probs"":{""2AA"":0.3641029365408122,""2AB"":0.4567743075013725,""2BA"":0.3124600306784452,""2BB"":0.28094429693560946},""step_1_action"":""1B"",""step_2"":""2B"",""transition"":""common"",""step_2_action"":""2BA"",""reward"":true,""timeout"":false}"
"","call-function","884","455","0.0-2.0-0.98-0.98","","",""
"","canvas-keyboard-response","885","455","0.0-2.0-0.98-1.98-0.98-0.98","623","m",""
"","call-function","886","455","0.0-2.0-0.98-1.98-1.98-0.98","","",""
"","canvas-keyboard-response","887","455","0.0-2.0-0.98-1.98-2.98-0.98","null","null",""
"","canvas-keyboard-response","888","456","0.0-2.0-0.98-1.98-3.98-0.98","918","m",""
"","canvas-keyboard-response","889","456","0.0-2.0-0.98-1.98-4.98-0.98","null","null",""
"","canvas-keyboard-response","890","456","0.0-2.0-0.98-1.98-5.98-0.98","null","null",""
"","call-function","891","456","0.0-2.0-0.98-3.98","","",""
"","call-function","892","456","0.0-2.0-0.98-4.98","","","{""trial_n"":99,""reward_probs"":{""2AA"":0.40567554384042864,""2AB"":0.43443775077012364,""2BA"":0.30000289461705126,""2BB"":0.2617081598531389},""step_1_action"":""1B"",""step_2"":""2B"",""transition"":""common"",""step_2_action"":""2BA"",""reward"":false,""timeout"":false}"
"","call-function","893","456","0.0-2.0-0.99-0.99","","",""
"","canvas-keyboard-response","894","456","0.0-2.0-0.99-1.99-0.99-0.99","553","z",""
"","call-function","895","456","0.0-2.0-0.99-1.99-1.99-0.99","","",""
"","canvas-keyboard-response","896","456","0.0-2.0-0.99-1.99-2.99-0.99","null","null",""
"","canvas-keyboard-response","897","457","0.0-2.0-0.99-1.99-3.99-0.99","659","z",""
"","canvas-keyboard-response","898","457","0.0-2.0-0.99-1.99-4.99-0.99","null","null",""
"","canvas-keyboard-response","899","457","0.0-2.0-0.99-1.99-5.99-0.99","null","null",""
"","call-function","900","457","0.0-2.0-0.99-3.99","","",""
"","call-function","901","457","0.0-2.0-0.99-4.99","","","{""trial_n"":100,""reward_probs"":{""2AA"":0.43219102431745793,""2AB"":0.43811231464762757,""2BA"":0.27316523458717396,""2BB"":0.2591122901199626},""step_1_action"":""1A"",""step_2"":""2B"",""transition"":""common"",""step_2_action"":""2BA"",""reward"":false,""timeout"":false}"